time_ms,acc_x,acc_y,acc_z,gyro_x,gyro_y,gyro_z,ir,red
38549,1876,1956,15136,-243,-59,237,166368,81711
38691,1388,2064,15300,-136,159,-156,166405,81647
38831,1584,1740,15172,-43,125,-153,166047,81592
38971,1624,1948,15272,-238,-11,47,166159,81742
39111,1524,1864,15316,-287,12,-150,166308,81726
39251,1416,1772,15248,-49,232,82,166429,81762
39391,1376,2088,15392,-51,311,-41,166087,81639
39533,1400,1832,15264,-108,74,186,166045,81610
39673,1304,2220,15236,115,177,443,165973,81681
39813,1524,968,16436,-2562,1882,30,167159,82090
39953,-632,1384,20696,-9804,-1738,1873,168297,82229
40093,6180,-3004,13020,-21708,-1621,4801,168356,82238
40235,224,-7288,1456,4981,5964,2634,165461,81428
40375,-2160,3308,21988,24450,57,3017,171140,82974
40515,2612,-2028,23104,-23232,-492,-5494,173045,83469
40655,3804,-6568,3668,-9246,2979,552,168075,81900
40795,5096,3504,7992,32767,-3911,4001,168217,82644
40935,-2148,-3304,31512,-15353,-2381,-2318,172867,83296
41077,1160,-3988,5736,-19971,4567,3858,170453,82569
41217,-948,-2672,240,27554,-2851,3950,165701,81764
41357,-4232,-2072,32767,-15351,-2493,-3582,173128,83404
41497,516,-4280,2844,-19225,3672,3877,170108,82640
41637,-1764,-2112,1444,32767,-8977,832,167559,82642
41779,-1776,-3620,32767,-20469,-8269,-3140,173946,83606
41919,-56,-5580,-1324,-15229,782,5173,171514,82847
42059,-1896,-2268,10152,32767,-1411,-2356,170479,83381
42199,-880,-5488,26756,-22143,-10283,168,173847,83676
42339,-2540,-6120,252,-8519,3820,1214,170851,82952
42481,-1268,-2928,14972,27080,-2479,-3085,172456,83428
42621,-1856,-6180,22220,-23990,-6096,3344,173976,83747
42761,-3452,-5952,-748,1650,1400,1325,171489,83324
42901,-1812,-3884,26128,8056,250,-3103,173795,83798
43041,-1772,-5908,14008,-4532,403,1155,173811,83789
43181,-1080,-6752,11740,-2658,28,1118,173829,83774
43323,-1856,-4028,7960,22115,781,-2271,172693,83638
43463,-1556,-5268,23508,-17403,-5665,-1154,173871,83878
43603,-1296,-5484,-448,5927,-344,1047,171146,83059
43743,3536,8056,32767,2695,3004,-3969,174596,83990
43883,-992,-4736,5752,-10462,981,2934,171567,83033
44025,-5460,880,14332,24521,-164,-1630,167358,82790
44165,-60,-5420,13416,-18933,-3586,4808,171967,83165
44305,-2316,-4176,2316,16613,7040,-163,165840,81933
44445,1924,-2420,22144,-13519,-6382,1754,173258,83824
44585,-2412,-4900,2620,7765,3246,2034,165832,81723
44725,7716,7576,30636,-7458,-8206,-168,172918,83668
44867,-2184,-3996,4708,-964,25,2403,166646,81805
45007,8540,8044,32732,1219,-5324,-2905,173412,83869
45147,-560,-3220,7024,-7914,1304,3936,168169,82334
45287,-3824,-256,26812,14681,-1867,-7342,171104,83781
45427,-68,-3072,8144,-10921,-881,895,168947,82237
45569,-3468,-464,20148,16203,953,-5634,168237,83324
45709,244,-3924,10764,-12470,-1952,1053,168699,82255
45849,-4496,-4132,10980,20092,5938,-5013,166129,82773
45989,-724,-6112,13604,-14674,-5071,880,168933,82369
46129,-4932,-2576,7208,17191,7004,-3432,165168,81742
46269,2140,-2648,17836,-12353,-7548,-1641,169105,82418
46411,-3716,-5960,3964,12972,7939,-4519,164744,81386
46551,4520,-3112,18760,-13567,-6793,1697,168868,82339
46691,-1916,-4032,3852,10798,4633,-2337,164804,81482
46831,5288,484,23364,-11227,-8725,661,169148,82571
46971,-2544,-4192,4372,5392,3351,646,164665,81365
47113,7144,5180,25312,-7396,-5950,2464,168985,82530
47253,-2320,-4460,4596,3386,3533,1644,164832,81345
47393,7228,7868,27808,-7694,-4368,242,170169,83069
47533,-1972,-4904,4960,-215,766,1972,165381,81550
47673,8944,11872,32767,6148,-3468,-6501,171711,83445
47815,-712,-4312,8124,-13802,-486,7549,165703,81538
47955,-6088,-2800,10320,19564,8381,-2819,166050,82248
48095,4704,-5256,16356,-18051,-5671,6882,171186,82926
48235,-2900,-5480,3220,12683,7420,-1281,165494,81799
48375,6468,-4284,21456,-15767,-9724,4185,172422,83538
48515,-1804,-6264,1304,11487,3636,-739,165450,81631
48657,6140,404,26868,-13141,-8245,108,173090,83785
48797,-1684,-5460,2116,5593,3864,1287,165818,81739
48937,10704,11800,32767,1715,-4522,-4442,172869,83899
49077,-1872,-4428,5036,-10270,27,1506,165571,81657
49217,-1800,2420,22540,19306,5521,-4477,168503,83350
49359,180,-4384,12276,-20238,-1733,5167,168570,82324
49499,-1828,-5224,832,18787,9507,-1332,165464,81710
49639,3944,-3188,24744,-15802,-5256,1808,172293,83553
49779,-1228,-5736,2828,3417,6734,-1411,165722,81794
49919,1388,9392,32644,-2720,6899,-1398,173176,83771
50059,-2004,-5336,5832,-7295,-364,1988,168570,82335
50201,-940,1168,30784,9058,2189,-3261,173316,84039
50341,-1180,-4636,6668,-15139,2506,313,170013,82671
50481,-6160,-3740,17752,20752,2064,-2529,168847,83680
50621,-60,-6376,10760,-18379,-1174,-3105,171548,83329
50761,1944,-5320,16996,6648,-1232,1099,170960,83746
50901,788,-6968,12032,-1736,1326,-296,171441,83388
51043,-1016,-6028,14412,30,2567,451,172668,83832
51183,-988,-6416,13584,-515,422,345,173004,84002
51323,-656,-5792,11660,1987,-574,187,173351,84087
51463,-3216,-784,22744,18835,-1587,1565,173071,84188
51603,560,-4000,10300,-21376,-1342,-2895,173625,83958
51745,-5016,-3776,8704,23166,3840,4529,168517,83272
51885,2464,-6568,12248,-20642,-4366,-1120,173575,83923
52025,-3608,-2208,3796,28934,4528,2360,166818,82828
52165,3192,-3720,19628,-25011,-4739,2733,174083,84118
52305,4,-5656,-48,11945,4852,3893,165850,81919
52445,3840,4496,32767,-7859,-9008,-5537,173948,84246
52587,-744,-5148,5448,-3527,486,3409,167626,82159
52727,5116,5908,32767,7506,-1598,-2789,174207,84343
52867,-1876,-5808,7372,-14237,1216,-1524,170351,83069
53007,-2756,-468,19796,23487,1422,2283,169204,84080
53147,1332,-5704,11516,-18154,-11314,-2852,169890,83105
53289,-1148,-4208,5360,21747,6569,-698,165781,82092
53429,5252,-5740,20424,-18254,-8495,3013,171624,83506
53569,-1020,-6216,2468,8778,4529,4020,165599,81866
53709,12444,12096,32767,3298,843,2608,173969,84252
53849,-1252,-3612,8628,-17890,841,-1855,168896,82506
53989,-4184,-1916,12284,24821,5158,5246,166741,83060
54131,-912,-5220,15424,-22436,-5768,529,171791,83472
54271,-3360,-4852,1968,16778,9325,-1592,166094,82057
54411,24024,10688,29272,-4980,-6156,-3652,174646,84565
54551,-7828,-1924,12152,-6478,33,16278,167807,82416
54691,1944,-2508,14380,3955,204,-22232,169695,84016
54831,7052,-2732,13984,-2245,-5069,19145,172957,83868
54973,-11000,-7264,9196,1789,5344,-17348,168069,82710
55113,11872,4280,23568,-2182,-2021,-2151,174370,84466
55253,-9484,-3688,13216,-2354,-102,13355,168799,82797
55393,10764,-104,19652,5746,-99,-16914,173329,84504
55533,2252,-1180,13240,-2350,-4350,22045,171867,83619
55675,-5580,-5812,11692,511,1524,-16128,169932,83557
55815,11916,-448,17700,-3514,-3300,4178,174347,84368
55955,-5236,-5824,14688,-4154,-1265,5377,171712,83951
56095,1652,-5228,14132,-1832,1350,2922,173863,84446
56235,352,-5816,13924,-836,-755,1430,174331,84508
56375,420,-6428,14504,-981,14,792,174677,84613
56517,-316,-6464,12392,923,-440,1027,174373,84421
56657,380,-3212,17292,4840,5759,-21331,173900,84607
56797,6164,-3656,13736,2358,-6025,18943,174524,84614
56937,-12808,-6856,11096,-413,5432,-15068,170335,83421
57077,18388,492,20652,-860,-701,3420,175053,84849
57217,-13592,-2360,15696,-2079,-160,12981,171649,83371
57359,14072,200,18560,648,718,-20273,174490,84743
57499,-2328,-1088,13816,1965,-4750,25558,172841,83894
57639,-5648,-3688,13992,1966,-2977,-26271,170058,84194
57779,6972,-3672,12308,2694,-5718,27310,173132,84027
57919,-11716,-5116,13872,644,-2463,-18117,168923,83283
58061,11520,1576,16776,1619,5496,23297,174137,84283
58201,-15832,-5520,10944,-3571,6866,-10448,169000,82888
58341,17868,4044,20544,-2275,7540,9660,174390,84571
58481,-16008,-6268,11044,-6212,7325,900,168658,82834
58621,14928,-964,18664,-1329,-9346,-11894,173157,84491
58761,-8064,-3944,12516,1673,1943,20753,169184,82950
58903,-5216,-5576,15712,1681,-3221,-24326,169784,83520
59043,5496,-3764,12344,-1505,-471,22316,170083,83238
59183,-15492,-8840,9168,1471,1613,-18170,168057,82786
59323,14948,1604,19268,-1892,9993,6191,173979,84378
59463,-15564,-10992,10252,-5875,-3809,490,168100,82740
59605,6472,-1320,18216,6300,-5937,-19886,172856,84500
59745,-188,-5928,12396,-2679,-1416,20345,170784,83301
59885,-10412,-7300,11104,2698,4193,-18614,167829,82958
60025,14364,-4488,15112,-2387,-112,9627,174347,84585
60165,-14720,-7900,12904,-5073,1499,3844,168984,82899
60305,14688,-3408,18000,2053,130,-12796,174045,84692
60447,-5432,-6852,12968,-2695,-3192,17552,171629,83632
60587,-3048,-6936,12604,4496,1684,-16954,170527,83999
60727,1024,-6256,13612,-875,-7635,16701,172696,84012
60867,-12552,-9144,10048,4376,6009,-14811,169563,83253
61007,6184,-2660,17860,-1306,2197,10525,173702,84301
61149,-14928,-10512,8268,-1908,8581,-3478,169546,83052
61289,18036,4244,24212,-5284,1892,632,175187,84793
61429,-11824,-8736,8700,-9987,3908,9551,170694,83404
61569,1312,-6688,21084,7691,-3271,-16249,172609,84793
61709,-6688,-10428,8700,-10029,542,12739,172558,84135
61849,-5436,-9476,9592,-2916,941,2203,173259,84345
61991,-4952,-10816,9392,-942,-274,-539,173134,84332
62131,-9556,-11088,2872,9831,-2378,-10540,169587,83291
62271,17836,5148,31364,2795,-9466,-1972,175279,85048
62411,-17888,-10132,4324,-211,1317,3079,169075,82971
62551,19292,7256,31808,5894,-8588,-11904,174848,85050
62691,-9904,-8904,8468,-8279,1006,15327,170790,83512
62833,-6368,-8784,10104,13166,-410,-20213,170504,84182
62973,872,-11012,11464,-7647,-696,21262,173943,84178
63113,-10300,-9996,5108,8162,4771,-13158,169295,83483
63253,4896,2112,25436,-4370,-9328,5521,174864,84771
63393,-14920,-10068,5468,-4066,2322,453,169101,83151
63535,7728,9084,31400,-3911,3253,-6038,175001,84858
63675,-12188,-8412,5384,-4811,1568,8570,169149,83177
63815,4504,536,28672,6969,-5009,-12125,174028,84998
63955,-10740,-10160,4952,-11733,127,13005,170410,83467
64095,-3724,-5276,15336,17471,6623,-16061,170865,84503
64235,-7208,-16440,9636,-11334,-236,16633,171298,83539
64377,-6488,-8716,8964,14299,4444,-17700,169198,83863
64517,-7004,-15808,10568,-9134,-472,17609,171691,83742
64657,-7396,-9692,7664,9833,3019,-21246,170060,83835
64797,-1676,-11628,11500,-2818,480,23976,173225,84061
64937,-7708,-10784,7828,7310,78,-23409,170125,83797
65077,828,-8956,12076,-392,-4154,21914,173586,84232
65219,-9800,-10504,8344,6721,5311,-20435,170057,83431
65359,4928,-8020,13544,-4677,2440,20012,173546,84133
65499,-12620,-10124,6348,3676,6134,-11393,169466,83434
65639,15924,2980,23344,-3168,1333,6953,174813,84852
65779,-17184,-10248,6312,-3951,4426,883,168231,82998
65919,18592,3116,27568,-252,-9085,-7123,174107,84891
66061,-4324,-8380,9304,-5261,591,15315,168504,83099
66201,-7604,-7476,13904,12646,-126,-21114,168212,83876
66341,-5696,-12476,10316,-5922,-2033,19220,169697,83436
66481,-9888,-8804,10040,9797,3018,-19077,168084,83288
66621,-636,-12940,10932,-7936,-2874,18519,170665,83543
66763,-6708,-12120,5872,9158,4397,-14174,168474,83321
66903,-2952,-12044,14100,-5390,-4959,13969,171522,83869
67043,-6232,-12376,6456,7755,5050,-17249,168358,83449
67183,176,-9364,12884,-2635,-6646,19778,172112,84039
67323,-12016,-10396,8456,6405,5093,-18944,168697,83305
67465,4532,-10688,13536,-9100,-3627,17748,172359,83960
67605,-13576,-11888,3156,1103,5235,-11621,168087,83091
67745,16340,1236,22284,-1204,-594,4052,174766,84935
67885,-12524,-10360,6196,-1958,8776,1781,169672,83475
68025,22504,2148,26276,3248,-11598,-4837,174437,85123
68167,-10180,-9404,8156,-6576,3381,7920,169667,83383
68307,608,-5012,18984,12662,-7199,-16138,169941,84614
68447,-5892,-10536,9868,-10448,2185,17930,171160,83844
68587,-7028,-9196,6264,10435,2256,-12050,169092,83558
68727,1560,-10456,15780,-6523,-3386,13643,173667,84408
68867,-7996,-10088,6068,3596,3834,-10406,169869,83585
69009,2260,-9156,14876,-4528,1737,8032,172640,84165
69149,-8624,-10844,4264,7582,6562,-8193,169059,83523
69289,8196,-1796,23460,-2038,-61,6954,174857,85025
69429,-10828,-9676,7004,-5467,7275,-2847,171042,83875
69569,19784,3692,27144,2736,-9446,-5013,175258,85274
69711,-9636,-10360,8648,-7973,7044,8578,171688,83948
69851,1172,-5504,18292,13299,-8494,-11068,172354,85077
69991,-7048,-11868,10060,-9244,-1420,12831,172685,84456
70131,-6652,-7640,7740,13813,682,-15931,169749,84053
70271,-1060,-12740,13708,-9984,-7040,20871,174255,84571
70413,-6608,-9072,3492,8001,6360,-14166,169624,83502
70553,10628,-5920,21548,-6136,558,11957,175290,85014
70693,-8652,-10800,3900,-168,3713,-6213,170205,83851
70833,22688,4080,27172,-1410,-6910,2879,175654,85311
70973,-10972,-10296,4240,-4572,4653,1031,170542,83870
71115,14312,-236,27160,9084,-16443,-10100,174709,85351
71255,-8548,-8092,8992,-8322,6963,9534,171379,83776
71395,-2016,-6032,11324,15313,-5293,-17857,169509,84475
71535,-1252,-10900,13360,-7361,-2938,23096,172875,84325
71675,-7116,-8764,5056,8091,8810,-17844,169352,83509
71815,10252,-7552,19644,-6193,-547,14141,175218,84964
71957,-10692,-10500,3964,-893,5703,-7803,170043,83708
72097,26200,5872,27528,3309,-7941,-3516,175827,85418
72237,-8624,-7316,9908,-10147,4812,10145,172039,84146
72377,-2068,-6752,10096,15281,-3000,-14473,170107,84532
72517,-588,-12832,14580,-8174,-5649,19821,173831,84606
72659,-6492,-8508,4696,6685,5218,-11209,169387,83514
72799,10596,-5868,22132,-4061,-138,10288,175138,85080
72939,-8784,-9076,5012,-3138,4921,-1216,170288,83894
73079,18320,1876,27004,6205,-8770,-7832,175610,85482
73219,-6544,-7456,8684,-9691,5097,7228,172553,84251
73359,-3396,-4172,12984,16499,-2245,-13738,170528,84718
73501,-5192,-13916,12148,-10897,169,13676,173771,84542
73641,-5800,-7424,6288,9917,2609,-9803,170656,84048
73781,368,-10100,16800,-8935,-2238,9450,175480,85241
73921,-5028,-9652,4176,12696,7487,-13215,170433,84044
74061,5304,-8068,18696,-7183,-10087,5906,175594,85290
74203,-2596,-6764,10424,7781,-1511,-8995,172089,84784
74343,4388,-6512,13800,-374,-3886,-1279,174931,85052
74483,5044,-3348,16160,1056,-894,52,174059,85093
74623,2380,-5272,13236,-2366,-3108,2293,172780,84751
74763,10136,356,20460,-583,-833,-3588,174666,85119
74903,-148,-6112,7480,3561,1778,-3,169647,83740
75045,7940,-5788,16884,-5371,-8568,6039,171755,84288
75185,-456,-5380,11456,8360,5185,-8049,168919,84069
75325,6360,-6220,12512,-3460,-2546,4786,170551,84147
75465,4888,-1876,20064,8434,306,-7818,171520,85133
75605,84,-5804,9916,-6092,1377,6170,170176,83942
75747,11036,3896,27612,5054,-5516,-11034,174221,85310
75887,-816,-4408,7936,-6660,-897,10105,170203,83906
76027,10600,-1028,23336,5826,-5643,-15032,174164,85573
76167,1104,-3896,9000,-7056,-1499,16491,172598,84609
76307,-1224,-3724,16244,10643,-4298,-20043,170620,85116
76447,2960,-8528,8852,-6334,-2682,11666,171883,84431
76589,3420,-3636,14400,3650,1191,-5411,172561,84764
76729,5216,-5720,14652,1059,-727,-1883,173189,84939
76869,6220,-4932,14772,-3652,2408,4560,174579,85206
77009,-1044,-7116,7864,7298,4869,-10461,171093,84482
77149,9712,-7776,14716,-5313,-10418,17915,175006,85233
77291,-8584,-7196,7792,6801,8791,-18592,170397,84124
77431,14172,-8520,13460,-6390,-1769,20949,175290,85263
77571,-12008,-7636,8200,3715,9649,-9792,169985,84016
77711,18596,-4124,17780,-4868,1980,11942,175491,85461
77851,-12436,-6152,8440,706,10273,-1634,170786,83890
77993,32640,4384,21772,2865,6523,8977,176254,85606
78133,-12948,-5912,7968,-1825,9400,-5888,170136,83856
78273,22744,3388,19808,-3008,3880,6652,175261,85545
78413,-10376,-6088,9212,-877,3184,-197,169211,83802
78553,24876,2656,22276,-2370,1737,-6702,175688,85638
78693,-1044,-3792,12600,-1234,-4398,11105,172562,84793
78835,6108,-6560,12904,-3848,1317,-2415,174027,85088
78975,6468,-3856,13360,7533,4076,-5621,173964,85346
79115,6348,-4764,13436,1092,-3067,3776,174464,85250
79255,5104,-2816,14960,-404,185,-2208,173541,85111
79395,8060,-3880,13732,-496,-429,1179,173391,85014
79537,-2288,-5436,11832,2096,8487,-9270,171690,84585
79677,11600,-2884,17488,-3577,-7030,21674,175321,85396
79817,-11296,-6528,6248,2299,7553,-14532,169414,84010
79957,12924,-5436,16588,-1871,-3704,15830,175628,85473
80097,-7864,-6588,9232,3014,6595,-13562,171250,84565
80239,11644,-2388,17600,-1217,-3565,17774,175943,85557
80379,-9596,-5972,7852,1838,5553,-23276,170159,84176
80519,12388,-2040,19248,-2056,-808,25409,175617,85607
80659,-12356,-6004,6116,-607,4593,-15085,169509,83979
80799,23192,-1152,20472,-5289,694,13668,176290,85724
80939,-12684,-5908,7072,5421,9289,-7074,169137,83727
81081,17172,392,22156,-2110,1109,2953,175553,85466
81221,-4036,-6772,7048,3012,7125,-6718,168576,83844
81361,9576,-1396,18320,-3392,-832,20249,173324,84885
81501,-11204,-5144,11064,3483,9177,-17871,168677,83757
81641,11980,-4904,13080,-2503,2650,22684,172808,84652
81783,-17440,-6576,9148,2368,10035,-12151,169024,83691
81923,15288,-3324,16528,-3753,2756,16060,174996,85120
82063,-17604,-6824,9544,-3453,7608,-3346,169598,83999
82203,31944,6932,21588,-3068,200,6087,176338,85859
82343,-14776,-4960,8536,-162,8306,1474,170453,84076
82483,30944,9280,24380,-2545,-5208,-2392,176307,85778
82625,-9996,-4004,9484,-458,6206,6802,170898,84150
82765,23224,2920,20788,-7100,-656,-4547,176387,85761
82905,-512,-3600,9480,7962,280,6041,170581,84483
83045,23312,4484,26420,-7440,-4923,-8053,176183,85758
83185,-5744,-2936,9828,-442,981,12074,170894,84210
83327,26740,8356,28844,-791,-18815,-13383,175996,85815
83467,-4832,-1632,9908,1042,3719,11891,170477,84080
83607,26140,7796,25936,-3743,-11795,-8524,176159,85861
83747,-3840,-3780,9656,-35,7627,8417,170221,84132
83887,20364,2852,22236,-2890,-7846,-6504,175066,85505
84027,-5692,-5496,12588,-2797,4567,8856,170326,84046
84169,13448,-2428,18396,-4194,-2963,-9432,174521,85487
84309,-2596,-4268,8752,9212,3087,7994,171190,84376
84449,25536,7060,30348,-6177,-10071,-2822,176339,85871
84589,-11672,-4832,6904,-7800,10310,2962,171563,84218
84729,31336,8048,32556,1815,-21438,-3234,176464,85991
84871,-10792,-4528,8976,-5085,6487,6551,171850,84297
85011,27416,8740,32767,4252,-22992,-14912,175976,85972
85151,-6760,-4300,9216,-4878,1140,13172,171863,84422
85291,11332,1832,27756,9841,-15062,-20091,174006,85974
85431,-6220,-3972,8288,-7929,2480,14835,173174,84751
85571,-444,-4788,12164,15398,-3448,-22333,171764,85254
85713,-1772,-7776,11148,-6904,-6888,22520,173534,84958
85853,-7132,-6268,10168,11467,-842,-20897,170316,84616
85993,2096,-7708,10936,-5652,-5416,20045,173723,85027
86133,-10904,-6932,8876,11653,1702,-17281,170251,84294
86273,3816,-7856,13252,-7215,-4638,18356,174938,85332
86415,-10724,-7568,6808,9663,4964,-13257,170254,84069
86555,6856,-7364,15344,-8539,-4158,16171,175357,85381
86695,-8976,-8092,5196,8669,10009,-7054,170465,84262
86835,10640,-232,23324,-6488,3326,8428,175684,85592
86975,-8020,-7596,5200,658,7940,-2804,170376,84170
87115,19000,552,20108,-3256,5895,13253,176357,85624
87257,-12456,-7904,4788,-609,9888,-11811,170837,84223
87397,21996,1196,19588,-4712,8173,10075,176657,85796
87537,-13092,-7032,6680,-98,10550,-1786,170953,84315
87677,29656,5968,26756,-4277,1070,-1170,176926,85966
87817,-8056,-5164,8584,-3738,6305,8370,173030,84632
87959,15572,5604,31728,9740,-15798,-20526,175820,86032
88099,-3496,-5992,8980,-3960,7515,11330,171862,84441
88239,9756,3200,25300,13646,-15218,-15481,173087,86020
88379,-4056,-4860,11072,-7592,371,16571,172869,84846
88519,-5548,-2396,13020,11387,-5689,-22276,170026,84961
88659,1172,-5372,12220,-7473,-2809,21433,173504,84973
88801,-9684,-7720,6184,9296,3469,-18774,169999,84061
88941,5516,-6708,15604,-7858,-3112,19711,174599,85228
89081,-10044,-7792,6468,6561,5916,-15736,170084,84112
89221,11852,-6028,19160,-8849,-1777,16340,175332,85499
89361,-7796,-8396,9956,-4247,90,-955,171427,84721
89503,772,-8068,13160,225,-328,1402,174314,85376
89643,-5624,-8776,4684,11651,5441,-12955,171572,84525
89783,7504,-7024,17776,-4912,-7158,15210,176353,85949
89923,-11492,-7720,5524,6240,7339,-15050,171094,84334
90063,14472,-5392,17360,-6055,4546,11169,176802,85934
90205,-12184,-8532,6452,5741,14554,-9985,171177,84234
90345,19492,-468,19800,-4261,4204,9726,176662,85918
90485,-14908,-6736,8904,-2351,11796,435,171885,84430
90625,29688,4580,24356,-2306,-669,-1113,176979,86143
90765,-9044,-3584,11164,-1254,4962,11475,173382,84839
90905,22240,6236,27764,1548,-18341,-14747,176287,86136
91047,-4068,-3752,10168,-1766,-1551,15510,173831,85150
91187,3796,2028,22608,9904,-12376,-25100,173297,86043
91327,740,-4316,10864,-2727,-2391,20066,173672,85271
91467,-3784,-1520,14004,11970,-6370,-20589,171059,85290
91607,1340,-3868,13200,-5187,-5754,23114,173316,85131
91749,-8236,-4920,9712,6431,2360,-24663,169982,84485
91889,6396,-5912,14000,-5058,-5319,23698,174658,85368
92029,-11064,-8760,5536,6581,11421,-19327,169858,84378
92169,11204,-6724,15952,-3208,-10324,17918,174907,85182
92309,-14180,-8688,7096,3487,18552,-11344,168858,83941
92451,14180,-3112,18372,-3615,1172,12455,175154,85340
92591,-13016,-7880,5900,1451,13291,-11112,169369,84064
92731,18752,112,19156,-4311,-2813,7950,175706,85685
92871,-13208,-7056,6300,-2659,13763,-2900,169138,84028
93011,30640,4732,22392,-3427,4654,6193,176499,85727
93151,-10644,-4956,7224,-4216,10985,1079,169857,84095
93293,32767,12040,31536,1208,-11990,-1462,177505,86319
93433,-7668,-5236,7576,-3581,2823,6035,170512,84270
93573,23888,10016,32767,5314,-12655,-10090,176136,86211
93713,-4516,-3600,9704,-5702,1961,10997,170302,84315
93853,13500,3748,26132,8021,-12046,-18588,174071,86178
93995,-1396,-2276,10032,-3850,-3978,17413,171142,84532
94135,4264,-696,18948,8755,-4280,-20392,170959,85669
94275,-1188,-4944,10324,-5073,-1948,16914,171215,84693
94415,-836,-2760,12956,9172,4229,-20709,170259,84776
94555,7512,-6428,13240,-3459,-2932,19919,172716,84982
94695,-9784,-6860,9708,6165,7374,-18947,169206,84115
94837,11132,-4568,15216,-4577,-2883,18608,173032,85075
94977,-9660,-8120,7104,2401,9080,-17195,168884,84035
95117,16084,-1376,18840,-3556,1215,14983,174856,85530
95257,-14188,-8420,7976,-7040,5701,-13811,169908,84327
95397,19424,-112,19404,-741,3676,7664,176178,85797
95539,-13944,-6536,11800,-2014,7177,7324,172978,84791
95679,22960,680,22728,2915,3890,-7793,176722,86275
95819,-6184,-5140,12752,-2047,-1174,15935,172283,84939
95959,5824,-1904,19540,7062,-5049,-22632,173064,86315
96099,-3528,-4904,11068,-2771,-2377,19858,173485,85180
96241,-3928,-3868,11248,10080,774,-26062,169418,84778
96381,9180,-6288,13460,-1153,-13352,25356,173173,85184
96521,-10200,-8624,8204,2142,8037,-19836,169693,84259
96661,12156,-944,20832,11,600,12129,173922,85609
96801,-3392,-7260,7880,-18903,5177,2706,173370,85054
96941,-3648,-5124,5188,27180,2714,-3513,169364,84536
97083,4032,-5692,23752,-17071,-6013,1898,176543,86087
97223,140,-6892,2200,2315,1452,4985,169979,84249
97363,3392,2116,27456,21607,-4576,-4204,175086,86225
97503,1488,-2412,11904,-27295,-2246,1387,175580,85748
97643,-1564,-8188,-480,17755,3664,4649,168774,84070
97785,17864,3624,31840,-7280,-9547,-1720,175467,85881
97925,-616,-7548,3164,-8069,2282,3273,169682,84243
98065,-2480,-252,19136,26807,-4834,-8406,171522,85605
98205,340,-4076,11292,-25202,-304,4491,173233,85075
98345,-1316,-6524,2132,18808,6910,-2673,168607,83980
98485,8452,-3360,26396,-16202,7027,8069,173984,85291
98627,-356,-6700,1220,2926,3763,875,168877,84009
98767,9600,10136,32767,13743,-11912,-10089,172800,85544
98907,960,-3832,9396,-19451,853,9204,170093,84230
99047,-4132,-4760,4084,25415,11503,-6967,168591,84331
99187,5696,-5428,15892,-22447,-3244,10464,176657,85779
99329,-3884,-6432,164,17866,5386,-7055,169427,84253
99469,11944,-3372,25716,-18468,1526,5781,177462,86244
99609,-2856,-6248,-876,7305,2594,2566,169665,84348
99749,18784,8232,32767,-4605,-13384,-2958,177611,86462
99889,-2968,-6496,3080,-3940,2224,3529,171555,84401
100029,12760,12304,32767,6291,-17221,-7486,177247,86462
100171,-1996,-3580,3688,-13113,2642,5659,170714,84228
100311,-7304,-764,21276,26403,-4600,-8947,170775,85649
100451,48,-4656,9508,-25221,-3866,4240,174913,85682
100591,-5908,-5792,2944,25900,9013,-4683,169930,84248
100731,4100,-7624,16880,-23717,1080,11519,176584,85783
100873,-2936,-6136,632,15725,6710,-368,169481,84156
101013,15808,-2724,25516,-15141,-1538,4794,177244,86198
101153,-2368,-7220,2052,2760,4637,-452,169471,84256
101293,25976,10544,32767,-4715,-7316,1964,177128,86298
101433,-2896,-6472,4748,-3361,1902,4805,169613,84222
101575,7504,5476,32767,13494,-9460,-13149,175872,86404
101715,-2652,-4596,4852,-14334,22,6611,172454,84701
101855,-6896,-4432,9624,27544,7813,-8619,169218,84478
101995,2012,-8580,13204,-26391,-2513,7292,175672,85519
102135,-2184,-6612,-40,19259,7075,1636,168572,84025
102275,12648,2040,31768,-14279,-2799,2019,176732,86173
102417,-1244,-6232,1112,-824,2845,7845,168873,83992
102557,11556,8612,32767,8865,-9748,-10656,176146,86269
102697,2204,-4212,6052,-15190,905,3593,171303,84467
102837,-3888,-2620,4360,32767,15263,-3339,168841,84433
102977,3672,-5548,18544,-27384,-8340,3549,174643,85265
103119,-2956,-6688,-788,10592,-418,2614,168092,83955
103259,20676,9724,32767,-7076,-15062,-3615,176501,86253
103399,-1536,-5500,3096,-8565,4159,5778,168858,84213
103539,-3428,-100,23744,26500,-2251,-7194,171815,86095
103679,-152,-4180,10324,-25063,-3450,4397,172802,85054
103821,-2884,-4680,468,24676,7664,-1567,168577,84114
103961,9292,-4536,23400,-21843,-8111,7977,176372,86089
104101,-6012,-7412,-796,9831,4965,907,168686,84224
104241,28248,12340,32767,-4957,-6847,-124,177347,86391
104381,-3088,-5052,1536,-6671,7320,4802,170704,84274
104523,348,3176,32767,21824,-12137,-12725,173365,86341
104663,-376,-3444,6476,-21288,-905,7306,173016,85075
104803,-5136,-2700,4016,29034,9192,-7842,168736,84415
104943,1964,-6988,15552,-25893,-2885,12659,176810,86247
105083,-3488,-6012,268,14562,3917,-3650,168966,84270
105223,25468,6184,31320,-12276,3840,4317,177048,86358
105365,-4720,-5040,1580,-3623,1149,5353,168924,84159
105505,13572,9596,32767,13386,-24523,-14907,176115,86646
105645,-2476,-3520,4036,-15275,4074,8755,171557,84631
105785,-6924,-1820,9388,28298,1626,-13381,168620,84520
105925,1672,-7648,14380,-22773,-1599,12998,172693,84971
106067,-4204,-6132,1552,15666,8175,-5888,168308,84001
106207,15580,-540,25500,-15487,2721,9025,176595,86175
106347,-7040,-6224,664,1988,2365,2249,168291,84154
106487,30776,16580,32767,3510,-23554,-6767,177203,86660
106627,-3104,-2880,5708,-8636,4078,10261,169513,84402
106767,-8584,-2968,12536,28439,1598,-14695,169375,85381
106909,-796,-6276,11408,-22280,-1475,10237,172756,84989
107049,-4280,-5772,1804,16493,4393,-6583,169003,84384
107189,9856,-2712,21864,-12853,73,11599,176571,86322
107329,-10904,-5680,4500,3302,11753,-483,169048,84239
107469,26004,13632,32767,-4315,-9167,-1588,177425,86580
107611,-3656,-4400,4916,-8587,1643,3710,168421,84100
107751,1580,3288,32767,15861,-10805,-12882,172168,86568
107891,388,-4200,5744,-12800,-3114,12717,168211,84263
108031,-7728,-4684,7252,24004,2251,-16074,168379,84233
108171,2632,-5180,16604,-15125,-2652,17728,169992,84218
108311,-5468,-3696,3384,14573,5277,-9742,168053,84061
108453,13104,-2368,22708,-10674,-2246,12767,172151,85156
108593,-14680,-5612,5596,-1556,10697,-8869,168397,84123
108733,24280,4412,22472,-1264,7802,3059,174559,85759
108873,-8360,-2884,12808,-2746,3013,14663,168649,84242
109013,10500,1780,19376,-629,-3667,-24648,172350,86006
109155,664,-364,12284,2810,-2293,25153,170302,84562
109295,-7044,-3436,15596,-2350,2638,-28078,169652,84729
109435,10236,-4072,11352,4555,2528,20200,172008,85163
109575,-13360,-6004,14644,-1666,1516,-17062,170384,84751
109715,16820,-2440,13784,865,-760,10558,174794,85896
109855,-13580,-5100,16256,-1673,5003,1952,170471,84597
109997,21940,1328,16820,-1709,-1665,-3433,175560,86314
110137,-8604,-3936,14388,1033,2849,10235,171032,84891
110277,16116,4336,20268,-4338,-5824,-19634,175143,86468
110417,-3936,-2876,12216,3609,948,19381,170905,84760
110557,1236,1508,17212,1414,-5418,-31758,171782,86042
110699,2852,-1116,11948,2418,1775,27308,172374,84935
110839,-8052,-4968,13484,-131,341,-24503,171268,85050
110979,14012,-1480,13728,3178,794,22563,176291,86163
111119,-17128,-7684,11572,-3663,4840,-14523,171215,84961
111259,28220,1968,16560,606,-81,13654,177819,86777
111399,-21776,-5640,15620,-3859,3607,1236,171398,84962
111541,24456,5704,20500,-3807,-5716,-15628,177184,86810
111681,-5940,-2268,14620,3013,-1721,17392,171477,84948
111821,11440,1088,15752,-3044,-3860,-28501,173811,86332
111961,5056,-1640,12652,6626,-4453,24606,173112,85446
112101,-8044,-5516,13820,-4199,-764,-23943,171261,84993
112241,15456,-2724,11436,4106,773,18693,174829,85820
112383,-17768,-5648,16068,-2104,10895,-5211,171265,84776
112523,17528,-340,16908,-2180,2759,-3731,175930,86275
112663,-8200,-3076,16764,-937,5277,9720,171971,85183
112803,17556,-108,15844,-2299,-5712,-14734,176500,86749
112943,-1388,-1584,14144,3838,-5904,21962,174721,85897
113085,-1036,-2540,14432,199,671,-28829,172872,85844
113225,6516,-2704,12540,2348,-2252,24378,175066,85832
113365,-7068,-5164,14576,-1685,-1297,-22806,171970,85539
113505,12316,-3048,13588,4181,-842,18458,175685,86168
113645,-10972,-5304,14788,-3684,2994,-7008,171599,85139
113785,17444,-3952,13580,-5087,1334,-2161,176089,86346
113927,-6224,-3988,14712,-614,-1635,12452,172642,85246
114067,6556,-1528,14708,1393,3727,-23191,174623,86326
114207,6520,-3028,13860,4813,-6792,21713,175265,86176
114347,-7812,-5488,14412,-2637,610,-17608,171978,85485
114487,17548,-4432,13732,-2891,2224,10220,176740,86392
114627,-8540,-4400,14028,-313,1075,7707,171893,85122
114769,12044,-836,17740,-1106,4061,-21198,176608,86759
114909,224,-3256,11624,3394,-2155,19802,174107,85575
115049,2448,432,25340,6263,-954,-7769,175803,86780
115189,3444,-5812,6444,-17887,2677,3471,175437,86094
115329,-3028,-3576,1352,28036,4573,-2284,170085,84985
115471,6028,-6972,23860,-19379,-4160,7799,177828,86675
115611,-328,-6136,-516,7820,1610,3421,169797,84632
115751,18068,12088,32767,-2803,-5115,-1309,177790,86840
115891,860,-4052,4380,-7387,819,4706,171884,85111
116031,-380,1672,25832,21445,-2061,-6549,173665,86662
116171,2880,-3908,8960,-21771,-1692,2810,174605,85825
116313,-1752,-4564,2660,19535,6428,-1861,169380,84648
116453,7836,-6244,21364,-17795,-2692,5665,177361,86452
116593,-140,-5668,1416,7369,2854,1035,169324,84631
116733,12632,5728,31276,-6646,-1637,2131,177393,86785
116873,-3148,-5936,3708,-1188,3847,-308,169321,84612
117013,15100,12728,32767,3144,-12138,-8218,177523,86925
117155,-1220,-3252,4656,-12360,1852,4869,170403,84702
117295,-5976,-2524,11468,27410,8238,-8965,169386,85212
117435,3996,-6088,14596,-21226,-4256,2574,173156,85465
117575,-1276,-5312,1052,15944,6919,3399,168513,84424
117715,13592,1460,27952,-13192,-7501,3132,176307,86416
117857,-1848,-4456,3536,2613,7451,12517,168919,84526
117997,1264,7712,32767,11390,-9202,-8863,173363,86291
118137,64,-2144,7080,-17362,362,4279,168929,84500
118277,-6396,-4016,5360,25341,9835,-3484,168691,84633
118417,3508,-5912,17984,-23283,-5372,5348,174686,85567
118557,-2312,-4992,828,11247,2986,714,168523,84449
118699,18464,7816,32720,-10142,-11051,-298,176407,86473
118839,-3488,-3800,2896,-3208,5712,5903,168613,84360
118979,7068,7020,32767,19404,-11106,-14342,174101,86972
119119,652,-2168,6216,-16475,-946,6916,169757,84696
119259,-6784,-3668,7640,25174,10869,-8778,168735,84755
119399,4256,-6876,13600,-22016,-7451,11168,173735,85552
119541,-2212,-5116,1408,15412,6709,-5184,169005,84525
119681,11332,428,24268,-10879,-5552,4521,175770,86185
119821,-2952,-4328,3624,2997,2819,-367,169227,84676
119961,27244,12092,30240,-3692,-8938,1812,175829,86403
120101,-1004,-2844,5388,-5312,1581,4410,168959,84548
120241,9012,8468,32767,12241,-13466,-12924,173408,86446
120383,2368,-1872,7380,-11038,-499,6841,169046,84540
120523,-5892,-4188,12224,20532,8480,-10664,168903,85093
120663,3224,-4716,12096,-18970,-1396,11450,171898,85097
120803,-3716,-4196,1332,16583,6018,-4020,168605,84506
120943,11396,-484,27260,-14686,-7266,4680,176585,86438
121083,-3200,-4424,3060,1188,1329,906,168608,84447
121225,22460,15540,32767,2797,-13505,-6817,177137,86768
121365,-1500,-1836,4936,-9878,3846,7083,168761,84515
121505,-1772,376,25348,21542,-7369,-12385,171033,86719
121645,2280,-3444,8084,-16560,-4001,7947,170013,84610
121785,-5804,-4172,8136,18339,6123,-8052,168508,84625
121925,3004,-6796,14204,-15943,-3626,11258,171126,84836
122067,-3004,-5368,2968,13390,9875,-7555,168702,84500
122207,12024,-1548,23928,-10996,-1104,8121,172946,85553
122347,-2728,-4460,4876,1060,3547,2404,168099,84486
122487,25540,13140,31036,595,-7713,-1534,174374,85840
122627,176,-2712,5980,-2469,2040,2284,168282,84467
122769,20208,16700,32767,1638,-19299,-2786,176101,86574
122909,-3340,-3036,5808,-14619,1466,6310,168500,84522
123049,-2056,-1956,11412,27332,9788,-10301,169276,86120
123189,8456,-6644,11012,-18563,-12337,6665,173794,85745
123329,-5128,-5136,3192,19127,8920,-7233,168874,84705
123469,8632,-6652,19544,-18234,-2977,12234,176524,86208
123611,-3612,-5220,1924,7180,7250,-2563,168784,84564
123751,21396,3764,26400,-7941,-540,4956,176954,86599
123891,-2644,-4000,3764,922,2369,2019,169146,84790
124031,29132,10132,32767,-663,-10731,-1894,177251,86731
124171,-1912,-3068,4896,-3724,2998,3074,169075,84653
124311,23160,13188,32767,6991,-20451,-7861,176736,86851
124453,-936,-1452,6020,-5671,2067,3745,169141,84642
124593,4164,5764,32056,16325,-2613,-14293,173199,86844
124733,140,-1716,7372,-19431,3150,9608,171070,84904
124873,-3676,-4328,3516,22006,11656,-8079,168732,84626
125013,4676,-6824,16304,-20943,-5078,11768,174409,85653
125155,-4068,-5264,928,13644,8554,-4268,169091,84647
125295,16316,-848,25760,-12344,3455,8239,177461,86659
125435,-4128,-3772,2956,3067,3812,906,169289,84745
125575,24464,1132,23808,-7854,3129,6592,177311,86687
125715,-3404,-4108,2916,3653,6268,-37,169457,84785
125857,32767,9640,32320,-3057,-8001,-187,178050,86957
125997,-2816,-2672,4152,-2528,2364,3493,169657,84742
126137,30172,10512,31568,614,-10542,-2705,177642,86882
126277,-704,-1036,4872,2227,3337,1653,169299,84799
126417,28584,7996,32767,-5336,-10870,-1639,178148,87091
126557,-1692,216,5896,-7263,-895,6322,169823,84768
126699,3892,6080,18328,22682,-1299,-11369,170216,85307
126839,7024,-3608,14332,-14226,-3445,5759,171114,85088
126979,-3236,-1576,8356,9244,6800,-2842,169081,84758
127119,5444,-1416,15704,-12385,1897,5411,171877,85110
127259,-2888,-3164,5700,15988,12003,-7558,168785,84655
127401,8548,-2076,21056,-22182,-3058,14028,175555,86072
127541,-5240,-1324,1232,7022,-1048,-2585,168934,84627
127681,28424,15072,32767,-7400,-8873,277,178238,87281
127821,-3992,-1656,2464,-3018,3729,7626,169396,84733
127961,6012,10076,32767,14591,-9409,-12145,176648,87203
128103,-1156,-376,5548,-15821,783,4578,169451,84740
128243,-5588,-3020,15784,26046,6724,-8664,169645,85738
128383,332,-4472,10856,-19116,-7352,8442,172034,85245
128523,-4196,-4908,3404,19391,8454,-9717,168794,84693
128663,4612,-5428,16768,-19504,-3695,11762,172828,85351
128805,-5928,-5580,1572,12951,5003,-5686,168444,84498
128945,12588,176,25472,-10508,-5607,6209,176465,86604
129085,-7152,-4040,4016,2941,5545,722,168709,84730
129225,21764,12628,30032,-4945,-12232,-920,175743,86668
129365,-4020,-2484,4588,-1277,2114,3069,168352,84587
129505,22764,14716,32767,-3559,-13841,-233,176983,86938
129647,-3440,-2692,4616,-6564,5027,4397,169059,84701
129787,10564,11960,32767,10136,-11464,-11970,176927,87299
129927,-2248,-332,5716,-8331,1528,6852,169132,84925
130067,924,2572,21848,14513,-8143,-22904,172823,86932
130207,9976,-432,14180,-3409,-4703,14320,173783,86114
130349,-15048,-2852,14212,-2837,7635,-1788,169488,84820
130489,25464,5720,18164,-1230,-1603,-2178,175580,86758
130629,-12984,328,15740,-2363,7348,14528,169927,84997
130769,16432,2656,17608,-2737,-5620,-18589,175841,87074
130909,-7192,1500,15184,2281,3525,23898,171430,85253
131051,6172,3032,17672,-5852,-7224,-32768,175793,87107
131191,2252,1404,12900,7958,-3437,29483,173636,85884
131331,-4756,-1128,18392,-6072,-4161,-32768,174200,86939
131471,9596,-1236,10840,8062,-566,27142,175713,86588
131611,-11700,-6020,16396,-5933,-707,-22565,173717,86265
131753,15972,-3572,10908,3004,-2047,13525,177183,86842
131893,-15628,-3888,18016,275,7729,1179,173308,85843
132033,22320,-4,14876,-5309,1028,-1502,178417,87510
132173,-8100,-1600,16408,4992,1693,14574,174245,86060
132313,13844,1468,16256,-7871,-6118,-23171,177245,87387
132455,-1192,-824,13348,8109,-1281,24120,174209,86086
132595,3404,212,17948,-7269,-4508,-31632,175419,87109
132735,3744,64,12116,10487,-2383,29363,175900,86727
132875,-3304,-972,17920,-7488,-6410,-32768,175716,87123
133015,7424,-2336,10036,10866,-293,26294,175578,86629
133155,-6844,-5088,15144,-906,-3244,-26858,174222,86664
133297,6532,-1716,14560,6589,6851,26663,177786,87042
133437,-5692,-4204,14840,-4613,-387,-28919,174984,86823
133577,8504,-1424,12156,8488,468,25696,177446,87140
133717,-7296,-4620,17348,-6959,616,-25361,175014,86733
133857,11660,-3148,9468,9076,4663,21912,177262,86971
133999,-11096,-5540,16152,-2304,1283,-17395,175056,86698
134139,7120,-4400,10836,4358,1205,18009,177876,87190
134279,-11160,-5448,16732,-3864,1781,-24927,174595,86756
134419,10680,-2036,11480,8102,2110,22924,177964,87284
134559,-12856,-6656,14284,-2452,186,-23735,174416,86510
134699,18600,-1132,12840,7764,5487,24654,178913,87388
134841,-15408,-6496,13628,-1772,1731,-18998,173433,86136
134981,15036,-6764,13208,-15515,2833,12065,178673,87237
135121,1380,-7876,2468,13213,-4588,8878,171138,85813
135261,-9624,-3276,24756,818,10143,-21138,175860,86773
135401,21244,-6828,7636,-2836,-3071,9901,178242,87351
135543,-11672,-3944,17508,1831,1140,11573,174964,86316
135683,16408,1892,16220,-9269,-579,-21144,178313,87510
135823,-2856,-88,14908,11977,-2913,24300,176381,86902
135963,10612,3676,19788,-14590,-6133,-30401,178291,87476
136103,10508,-5828,7084,9748,6743,20736,173175,85958
136243,-12264,-6228,17316,-827,11346,-10381,173368,86016
136385,17200,-1936,13000,2809,975,12462,178374,87288
136525,-13532,-2992,17164,-700,11183,663,173728,85920
136665,22268,852,15404,-6221,-784,-7049,178017,87496
136805,-4592,224,16088,8610,1583,21212,173385,86024
136945,12636,3220,17160,-11977,-3531,-26194,177382,87218
137087,1712,636,12340,8160,512,25770,173614,86069
137227,372,-1008,16100,-8471,-8588,-31014,174731,86899
137367,7968,-1812,11240,11308,-609,24482,173477,86258
137507,-9840,-4684,17776,-5909,-6318,-26621,173065,86159
137647,7700,-648,11932,10910,-3003,24852,174778,86560
137789,-12064,-5204,16080,-3281,-1163,-25242,173657,86377
137929,16548,452,16212,3539,-3773,19137,176879,86965
138069,-18244,-6592,13976,-8018,459,-12210,172833,86027
138209,18624,-804,14512,6059,3345,15400,176158,86940
138349,-21456,-4248,15488,-1488,9215,-4333,173090,85924
138491,21204,2156,18584,41,247,-30,177216,87110
138631,-15996,-636,15144,-881,7084,9594,171971,85649
138771,19360,6336,19348,-10917,-11267,-19703,177264,87536
138911,-3008,744,13416,6874,-121,26767,172746,85944
139051,-2140,588,16048,-5010,-4706,-32768,175010,87101
139193,8004,104,11416,9973,-339,32271,175958,86739
139333,-13388,-5188,15248,-3853,-5354,-27625,174335,86601
139473,16528,-1484,11244,6502,172,21650,178138,87361
139613,-20592,-5436,16928,-1175,2617,-13142,173410,86243
139753,19528,24,14872,-1399,-1134,9004,178375,87537
139893,-15284,-3184,14728,-4068,8473,2975,173009,85873
140035,20764,3212,17708,1066,-61,2700,178495,87605
140175,-14296,-2272,15140,-671,4978,5628,172086,85755
140315,17436,2404,17088,-3322,-945,-16372,177426,87646
140455,-10068,-1016,12868,5754,7929,15323,171106,85451
140595,19072,9688,26228,-14241,-9713,-3496,178587,87691
140737,-5540,-5144,1940,379,-211,10221,170713,85422
140877,9968,15264,32767,5844,-11386,-13256,178567,87676
141017,-1288,-2908,4148,-10514,725,5006,171660,85669
141157,-3832,2180,29508,24434,9219,-5451,173836,87431
141297,-932,-2608,6884,-19371,812,3497,173491,85941
141439,-4864,-1236,4952,27820,12601,-6179,170541,86253
141579,3896,-4952,13936,-19300,-5734,3502,176555,86738
141719,-5592,-4604,752,17286,7548,-6075,170444,85739
141859,8028,-5296,21116,-17153,-4729,4545,179310,87726
141999,-4140,-3728,1904,6788,3111,-272,171376,85750
142139,21756,19076,32767,-3363,-14945,-608,178968,87761
142281,-2776,-2292,4208,-4453,2027,5428,172488,85714
142421,-668,13284,32767,8642,-10839,-8326,178243,87727
142561,-2268,-2188,6588,-10612,1168,4044,173219,85949
142701,-3940,764,25340,19194,5592,-6248,173235,87157
142841,412,-4776,11388,-17458,44,7146,174356,86145
142983,-2648,-4020,2020,17215,4959,-4812,170894,85548
143123,7048,-2844,20668,-14983,-7398,4611,177806,87247
143263,-3580,-4284,3228,5705,8850,863,169919,85337
143403,16352,9300,25284,-9480,561,5511,177838,87255
143543,-236,-4340,4224,-1076,1936,1118,170390,85406
143685,14364,12748,32767,904,-16230,-6729,177935,87342
143825,-852,-3712,5476,-6591,2096,5675,170234,85285
143965,-5492,-848,31116,20561,4115,-6681,172500,86765
144105,-516,-6592,10316,-18325,2731,8119,172596,85603
144245,-3164,-4140,6728,15539,10291,-5848,170868,85660
144385,6232,-8076,17824,-15858,-5411,6959,175865,86541
144527,-4600,-5824,1444,11762,2603,-2681,170581,85528
144667,3848,-3544,24696,-12946,-14067,1828,176700,86939
144807,-3652,-4100,2944,4561,2052,-158,170523,85521
144947,19116,13124,32767,-3738,-5697,-1192,177631,87223
145087,-4408,-2960,3512,-4917,5346,5971,170194,85386
145229,11952,10044,32767,10131,-5874,-9519,177948,87497
145369,-2592,-3072,6416,-14647,2064,7961,170596,85351
145509,-3252,-3520,13672,25964,9857,-10056,171793,86990
145649,5228,-7544,11844,-16701,-6704,9905,174106,86156
145789,-4508,-4384,5196,17485,8789,-7811,170495,85788
145929,12416,-8420,18892,-17001,-15771,5448,177456,87192
146071,-5192,-5640,1856,9247,4325,-1997,171042,85677
146211,12704,6208,28836,-10126,-5547,3282,177723,87347
146351,-5728,-4356,3040,-1452,4452,2229,170474,85570
146491,19980,18440,32767,2397,-16554,-6011,177788,87413
146631,-2208,-3768,6188,-10419,3499,4727,170457,85548
146773,-3864,-1876,23912,20156,-798,-9858,173752,87487
146913,364,-6512,9476,-14898,-1411,7626,172019,85710
147053,-3820,-2840,6008,21943,10409,-8073,169979,85594
147193,6860,-7764,15592,-18096,-6254,8667,175648,86555
147333,-6200,-6236,2496,9400,8419,-2042,169945,85463
147473,16008,12148,30692,-10034,-8186,2615,178975,87791
147615,-4136,-4648,4512,-769,6343,3659,170152,85460
147755,4156,10160,32767,7751,-4379,-10205,178209,87651
147895,-2064,-3784,5924,-12208,1031,6110,170768,85734
148035,-4172,-3080,9568,23906,8270,-7083,171123,86678
148175,1984,-8348,10384,-15556,-12399,4195,174575,86455
148317,-4652,-4600,3220,15655,13438,-6401,170195,85581
148457,6536,-6384,16000,-17882,-9842,9704,176381,86818
148597,-5536,-5172,-48,11227,4141,-3975,170095,85569
148737,19724,9964,32767,-10697,-12164,6840,178352,87411
148877,-6540,-3168,2588,-4127,15380,3889,169833,85370
149017,10456,12100,32767,7993,-6450,-11743,178615,87768
149159,2040,-2648,6812,-15019,6548,11389,173671,85907
149299,-2060,-3616,12628,27439,13047,-8867,172671,87292
149439,7356,-6552,10984,-19983,-13101,12970,176729,87273
149579,-3836,-4604,1912,20997,8692,-8355,170731,85938
149719,7016,-6280,17000,-14573,-19956,5451,177921,87472
149861,-6976,-5596,1732,8601,10270,-1826,170637,85647
150001,15532,8536,32116,-10128,-15876,2990,179319,87899
150141,-3988,-1684,3784,839,10247,8440,171446,85772
150281,12592,16760,32767,787,-5511,-5538,179638,88062
150421,-3204,-3236,4988,-8614,9072,3157,175138,86521
150561,4020,7480,32767,9708,-3031,-10004,179418,87943
150703,328,-3180,6816,-9266,3063,7158,176180,86867
150843,3612,1552,32767,19230,11048,-6116,179067,88014
150983,228,-4684,7008,-12229,-2028,7402,175966,86997
151123,-712,-212,18680,22219,9498,-8621,175810,87894
151263,2200,-2576,9828,-16108,-1208,6405,176441,87062
151403,-2460,-3036,5800,21301,9011,-5142,171637,86723
151545,3248,-6252,11932,-18742,-5419,5694,178048,87240
151685,-2524,-4868,1564,15842,6176,-2515,170282,85688
151825,9272,-2204,22528,-16473,-6918,4939,179002,87760
151965,-4644,-5412,1464,7601,1343,-248,170095,85681
152105,17504,11500,32767,-11149,-16241,1767,179433,88044
152247,-5764,-5156,1212,2490,3681,4028,169877,85555
152387,12260,18112,32767,-2097,-8808,-3857,178733,87897
152527,-3920,-3524,6140,-7289,2900,3319,170432,85770
152667,-920,2816,31868,21342,2677,-4516,176320,87836
152807,1092,-1904,8836,-11838,-1294,3747,171058,85843
152947,-4220,-320,12088,21331,10699,-6002,170974,86941
153089,56,-2748,10228,-17042,-587,3348,173487,86269
153229,-3624,-3232,3504,15997,7106,-4734,170295,85984
153369,2808,-5320,15996,-17439,-3411,6880,175927,86862
153509,-5064,-5972,1152,9713,2790,-2071,169535,85659
153649,18608,13864,32767,-10177,-9729,3976,178378,87665
153789,-7052,-4748,1208,-1487,3276,3956,169879,85531
153931,9940,14780,32767,3140,-6393,-3886,178369,87816
154071,-3940,-2552,3988,-9633,4917,4001,170436,85653
154211,-1840,3440,32767,17608,-1406,-8887,176953,87950
154351,528,-2140,7156,-16442,1022,5355,172305,85888
154491,-2992,-1916,14716,27145,10958,-5529,172238,87247
154633,3644,-4492,12564,-21952,-9110,10134,174072,86440
154773,-2584,-2712,1040,23157,5639,-10771,169867,85773
154913,2688,-8024,16644,-18723,-1056,7029,175825,86895
155053,-4148,-4600,1208,11726,3473,-3799,169760,85739
155193,13592,4084,30080,-11950,-3620,4509,177855,87305
155333,-6332,-3904,1876,-1061,3722,3557,169506,85556
155475,10644,19364,32767,3176,-6733,-6691,178101,87802
155615,-4824,-3044,4608,-9918,5230,5803,169926,85631
155755,944,5252,32767,20028,35,-8219,177193,87936
155895,-684,-1932,7452,-19367,3306,8018,172535,85981
156035,-1816,-3092,5968,30700,9666,-5213,170823,86676
156175,1008,-5224,11944,-23650,-5670,9513,175351,86713
156317,-3176,-2604,964,23671,6008,-5583,170450,86027
156457,2740,-6028,15228,-22348,-5807,5227,177350,87408
156597,-7028,-4884,256,11610,2799,-3129,170029,85778
156737,20272,12840,32767,-13965,-13007,4963,178688,87771
156877,-6944,-3432,2536,-3656,8824,5314,170201,85678
157019,4532,6600,32767,12589,-3906,-5586,178931,87990
157159,564,-2500,7264,-11307,3348,6736,174229,86366
157299,-3820,-2100,14016,24418,4470,-8054,172369,87471
157439,864,-2712,9108,-18507,-9770,7591,174447,86631
157579,-3920,-4852,2292,14060,7591,-4937,170051,85827
157719,15328,10464,32767,199,-10522,-202,176490,87036
157861,-452,1728,14752,3552,1240,-213,170329,85836
158001,2328,2676,14512,1288,-2000,-570,169762,85648
158141,5176,7944,25412,-12038,-5660,8127,171395,86474
158281,-16240,-3432,8428,-12411,11476,-1360,171015,85884
158421,32396,8812,24324,-1872,-7253,-4784,179737,88360
158561,-13160,-900,14012,-3226,4935,16032,174672,86581
158703,15068,896,18828,-3468,-3085,-26022,179584,88382
158843,-6216,-1008,13840,3079,-3526,28324,177980,87636
158983,2156,536,20232,-747,1494,-32768,179270,88392
159123,-36,-1340,11176,3176,-2107,32767,178653,87980
159263,-5724,-5780,14100,420,6968,-32739,177543,87935
159405,11356,-2400,12804,3815,990,30699,179147,88128
159545,-19128,-8076,11480,-3656,3565,-17914,175308,87335
159685,27516,2644,19960,-2305,-2517,8149,179571,88432
159825,-26184,-6460,11828,-8144,9048,6960,174357,86719
159965,14780,2040,25812,-625,-22708,-25808,178117,88513
160105,-14408,-6116,12512,-7464,814,25201,176050,86885
160247,-7732,-8192,6020,3863,6637,-29740,173021,86494
160387,-6908,-3388,13428,9787,7893,32767,176917,87330
160527,-11964,-5960,11432,-513,-745,-32768,174689,87057
160667,3020,-4136,10648,9431,8657,29799,176423,87347
160807,-17824,-9552,10260,-2626,-912,-26422,174259,86751
160947,19900,-3224,8348,8797,18170,27418,176867,87192
161089,-23592,-9840,13128,-3484,8804,-24513,174628,86725
161229,22488,1192,15052,2488,19652,21711,178926,87876
161369,-25576,-6768,12532,-5446,5854,-479,174447,86718
161509,29836,584,22876,1882,-12703,1175,178895,88331
161649,-21128,-6684,11996,-6211,-2273,-7993,175736,87084
161791,23296,-3308,16464,5214,2508,19076,178694,87961
161931,-29332,-5964,13132,-4602,12885,-5474,175709,86881
162071,31504,-2152,21512,5703,-5167,4240,179279,88467
162211,-22224,-1132,15596,-3989,2226,7323,176634,87226
162351,17228,488,14288,-4479,-21154,-22581,176833,88245
162491,-17404,-1156,15452,3069,8993,30664,176784,87034
162633,8148,-824,13820,-9337,-11203,-31528,178531,88435
162773,-13068,-3680,14012,6338,-3246,28299,177454,87476
162913,-184,-740,13160,-10682,-3645,-32768,178160,88294
163053,-8900,-4972,9904,6560,-12599,32767,178205,87909
163193,-4260,-6140,9800,-5380,-402,-32768,175669,87373
163335,-7284,-6576,10520,9078,-8883,32767,177355,87697
163475,-12876,-4112,13404,-2905,-3094,-32768,175863,87211
163615,3548,-3296,9320,5812,8171,28606,177981,87776
163755,-25664,-9904,11008,-3196,2539,-27541,176278,87368
163895,12020,-2804,10060,4726,18249,26671,179866,88236
164037,-17208,-9936,8872,-4130,-4727,-30877,177640,87796
164177,6284,-3296,10848,10998,8482,29704,179994,88288
164317,-19724,-9708,10628,-4092,6517,-25408,178383,88010
164457,18916,460,12948,4324,2427,23465,180307,88543
164597,-30784,-9216,12396,-3628,5572,-9246,177968,87691
164737,22048,-2816,16536,1520,-11682,819,180243,88702
164879,-30248,-6160,13784,-507,6499,8246,177417,87377
165019,5712,-5588,6180,-6160,-12735,-29154,178512,88368
165159,-8508,-680,15796,11705,8171,32767,179679,88181
165299,-7292,-2716,12756,-9510,-3193,-32768,178898,88241
165439,-6544,368,10576,5011,6985,32767,178995,87919
165581,-13896,-4816,11088,-5898,741,-32768,178088,87988
165721,6428,-1524,7912,10682,7423,32767,179494,88241
165861,-26172,-8660,14888,-1624,1599,-27971,177197,87758
166001,20240,-2428,13920,1645,7182,16908,179663,88456
166141,-28212,-5580,12284,-3075,13717,3736,178157,87541
166283,18092,-7308,9128,-840,-13564,394,179408,88485
166423,-19140,-3356,11864,4269,2677,18344,176803,87196
166563,3204,-2000,13592,-6727,-13056,-31330,178219,88349
166703,-7484,-3852,10284,12253,-4870,32767,177898,87884
166843,-13432,-1808,13524,170,-9949,-32768,175701,87612
166985,384,-1420,11204,10743,19112,31965,177920,87626
167125,-10548,-2420,10876,-4261,-11198,-32768,175402,87373
167265,2128,164,11696,5973,11203,31408,178363,88038
167405,-20136,-5072,10388,-1834,-7867,-31304,175842,87393
167545,10520,1020,12568,4601,19648,26966,178528,88063
167685,-25016,-7188,10380,-3326,-4394,-25899,175792,87344
167827,18768,1148,15408,3468,11562,20519,179246,88305
167967,-29204,-7772,10452,-2462,6477,-14312,176005,87291
168107,27120,2260,19928,295,5054,12567,178996,88525
168247,-23992,-5888,12092,-1945,9304,1384,176449,87312
168387,27640,8508,24072,-20,-3061,2515,179406,88554
168529,-13592,-3232,10776,-2420,4639,11218,176420,87408
168669,10968,1116,19400,4274,-27360,-20634,175435,88224
168809,-13832,-4220,12820,-1600,5492,23614,175188,87371
168949,-5568,-2264,14296,1802,-23934,-32768,173866,87692
169089,-7728,-6348,11628,-13045,-6469,24947,173351,86816
169231,-5020,-9016,3176,12761,1959,-4725,172579,86506
169371,5912,8420,32767,-163,-8763,-6520,178422,88172
169511,-1192,-6336,4544,-12625,2399,2310,173462,86584
169651,-9152,-3212,13048,27687,8555,9063,173519,86948
169791,-4172,-6360,13924,-31427,-3975,-8485,175540,87157
169931,-624,-7988,-2252,24249,4695,14061,171570,86459
170073,-4312,-3492,29036,-27164,-2015,-8594,177211,87856
170213,448,-12580,356,-17602,17,-10196,172541,86966
170353,-25660,-7160,6088,-2641,15142,17559,176403,87428
170493,7580,-9140,10092,6742,-14363,-23832,177437,88378
170633,-12416,-7108,9128,-1960,738,30443,179449,88097
170775,-3352,-8832,1640,10953,-5878,-32768,177561,88298
170915,-8832,-7368,8328,1994,-375,32767,179428,88208
171055,-11672,-8868,5688,3029,-4220,-32768,177570,88206
171195,-2052,-9476,9736,2822,1103,32767,179947,88535
171335,-13948,-12248,5892,-3753,-5986,-31597,179736,88543
171477,9472,-7872,7512,8911,8298,26051,180650,88738
171617,-19220,-12656,6416,-7846,-5360,-32768,179123,88417
171757,17212,-8736,6788,10788,9418,18912,180332,88904
171897,-30244,-17224,9280,-8105,9404,-17214,179442,88247
172037,26664,-6968,6948,2117,3185,14369,180894,88963
172179,-27360,-18056,5236,-8044,5022,-20814,179721,88405
172319,22120,-7640,5184,7479,8700,19396,180790,88894
172459,-27520,-18152,6212,-7127,5593,-19010,179663,88431
172599,24592,-6972,5816,5526,7664,18462,181041,89100
172739,-27136,-17144,3588,-10677,3953,-19740,180111,88533
172879,23260,-8636,4244,9390,4379,17818,181137,88990
173021,-28784,-18348,3460,-5867,6541,-20462,179760,88439
173161,23660,-7428,5948,7556,7618,20953,180457,88933
173301,-21512,-16888,1464,-8170,-6248,-26364,179066,88482
173441,22428,-7736,5080,4791,2230,18994,180621,88928
173581,-29396,-18260,184,-7402,5603,-21337,178884,88167
173723,24872,-6884,4976,4372,3809,16709,179947,88761
173863,-29900,-18348,-1672,-7087,9762,-15108,178829,88046
174003,27264,-6312,5848,6067,1932,15821,180204,88884
174143,-31564,-18944,-1284,-5467,6658,-16905,179061,88132
174283,30532,-5608,6700,4555,-2567,11049,180295,88873
174425,-30672,-18968,-1756,-5226,10914,-7863,178698,88016
174565,31500,-5156,8940,5099,-4132,7344,180144,88772
174705,-25952,-18160,-564,-7934,12833,-5694,179362,88202
174845,29944,-6360,8996,5056,-3674,3132,180310,88935
174985,-24612,-16972,-884,-4952,24189,4320,179736,88173
175125,28892,-6928,10476,5891,246,597,180137,88825
175267,-21476,-16952,772,-4641,23350,4727,180379,88301
175407,21148,-8660,9004,9806,8268,11504,180626,88789
175547,-22056,-14248,4876,-916,19708,3904,180868,88538
175687,8024,-8780,11112,9707,4734,8793,180973,88871
175827,-8856,-11404,9760,317,-1501,6670,181372,88866
175969,-5660,-9880,9752,-1703,379,197,181561,88831
176109,-6344,-10360,9520,-784,1755,3458,181786,88897
176249,-8440,-9968,9276,78,2274,2767,181522,88936
176389,-7860,-9024,8212,1244,-58,1154,181417,88913
176529,-13468,-10488,3816,12649,-141,-26904,181007,88763
176669,20716,4960,20664,22316,2396,11181,181173,89026
176811,-23568,-4200,16124,2296,2655,2936,181143,88655
176951,19292,5784,15336,621,-23753,-11629,181118,89136
177091,-17924,-1772,15560,-379,14234,15074,180595,88678
177231,10244,2952,8220,3352,-29223,-26828,180838,88969
177371,-9808,2956,17996,-94,26650,18842,180463,88595
177513,7360,1444,12760,-1774,-14201,-21894,180629,88913
177653,-10360,1632,15212,3478,15690,18252,180394,88498
177793,7268,8244,15692,-689,-24589,-22282,180403,89141
177933,-8920,2760,13948,-2455,18267,17108,180394,88630
178073,12220,6156,14680,-1201,-26778,-19610,180728,89166
178215,-10536,1444,12144,447,16140,19836,180525,88578
178355,10472,5120,14700,-1524,-21873,-18725,180459,89019
178495,-7156,1236,12928,700,9830,16706,180249,88729
178635,7000,7316,17836,-2715,-19709,-23958,180545,89074
178775,-8656,1444,12808,-171,16955,20409,180300,88652
178917,3320,6200,18572,-3063,-19677,-32264,180185,88945
179057,-10136,2536,12180,-5046,17525,25527,179878,88422
179197,4708,2168,16248,1009,-20764,-32199,179577,89029
179337,-8736,-160,12980,-237,14283,24955,179630,88393
179477,2540,2420,16740,1610,-18852,-31321,179478,88920
179619,-9072,652,13140,-466,13782,25460,179224,88199
179759,2032,4968,17252,-1589,-20773,-32768,179114,88829
179899,-6044,1692,13520,889,15949,25183,179280,88302
180039,-3376,852,12676,-183,-17154,-32768,177818,88674
180179,-4464,1396,13720,943,13755,26831,178162,87970
180319,-3700,956,13896,-2964,-18358,-32768,177200,88471
180461,-3628,764,12744,3617,13306,25819,177850,87932
180601,-4176,1964,15268,-1818,-14663,-32768,177277,88391
180741,-1508,1324,13988,3694,13719,25739,178034,88070
180881,-3204,640,13240,-4809,-16659,-32768,176785,88320
181021,-1616,1852,14888,5814,14367,28304,177422,87880
181163,-2316,-2084,11764,-3986,-12823,-29557,176534,88034
181303,-6200,2136,13924,5969,15775,27664,177218,87844
181443,-932,1524,12736,-5989,-17829,-30969,176861,88355
181583,-2704,2356,15572,6272,8558,24234,176665,87899
181723,-1760,-308,11704,-6969,-24100,-29904,175432,87451
181863,11808,8412,19060,13112,25343,18443,175692,87539
182005,-3976,-1880,12488,-21101,-11589,-17003,174528,86975
182145,-3352,-640,10724,23632,23497,12654,172582,86813
182285,2324,-3104,13080,-21087,-16226,-10341,174435,87078
182425,-3896,-3480,6776,21428,22155,6146,172273,86685
182565,1588,-5584,14380,-23777,-8572,-2201,176182,87421
182707,-1892,-4152,2340,21215,14780,3837,171415,86500
182847,-448,-7332,16640,-23066,-3652,1140,176855,87493
182987,-2972,-4844,2096,22574,11734,3540,171695,86707
183127,-184,-7828,15872,-21631,-5885,2913,177756,87912
183267,-3804,-3676,1584,22117,8685,-369,171478,86613
183407,788,-8704,16984,-22615,-7050,2492,176708,87539
183549,-2116,-4792,260,20137,7970,669,171491,86523
183689,1176,-8476,18988,-22562,-6447,3416,177198,87715
183829,-2712,-5396,232,19247,9997,1723,171798,86739
183969,3900,-6276,21056,-19681,-4717,3294,178656,88270
184109,-3120,-4868,136,19616,7447,2390,171551,86687
184251,3576,-6464,21932,-19731,-3784,3583,179417,88611
184391,-6468,-5208,836,17657,4293,2812,172300,86809
184531,5568,-3520,24032,-18244,-4960,3655,179712,88765
184671,-6304,-5828,-888,13808,3549,-2020,172105,86889
184811,6980,-4228,24412,-16347,-6155,4862,179560,88677
184951,44,-5320,144,15672,8979,-7413,172136,86805
185093,5956,-4476,21940,-14091,-9774,3119,179051,88144
185233,-3880,-6552,8200,4373,-5101,-8279,171549,86541
185373,11360,-1164,16204,-871,-1096,-1744,171359,86630
185513,4880,-3044,13796,-130,809,-1471,170687,86396
185653,5740,-2740,14212,-545,230,-541,170695,86383
185795,6936,-1988,13516,-41,1250,-31,170692,86335
185935,5532,-1812,14620,4388,8340,8488,170998,86495
186075,-6616,-1404,16764,1263,11373,8732,171489,86645
186215,-3264,-1496,15772,-5049,5046,1285,172066,86999
186355,-5264,-3340,13652,-4365,3050,3864,172123,86993
186495,-5572,-3804,10876,-678,-360,464,171906,86801
186637,-5272,-420,15348,6182,5131,-24059,173999,87641
186777,-4144,-352,14528,4340,1079,26416,174678,87276
186917,-3628,1440,12952,4741,-11343,-32768,174824,88337
187057,-8024,1492,15192,2294,10739,23624,175545,87546
187197,-2100,700,13028,-512,-11502,-29309,176477,88477
187339,-2308,4444,14120,4577,13999,29624,176236,87811
187479,-8668,1288,12432,-2131,-14722,-31411,174947,87856
187619,2960,4784,11688,3110,19800,28417,176916,88038
187759,-17992,-2680,11220,-38,-17980,-26539,175816,87923
187899,6752,2748,12944,2667,20712,25059,178561,88139
188039,-17704,-4588,11200,-2927,-13222,-23307,175433,87646
188181,2984,2900,13632,3932,21469,23887,178454,88195
188321,-19316,-5188,10564,-1330,-16579,-29115,175717,87615
188461,10648,2588,11996,9461,27124,23136,179758,88814
188601,-17416,-3556,13324,2621,-16122,-20215,175279,87629
188741,12904,564,11968,3779,16127,22799,179761,88818
188881,-25652,-6252,11352,-2397,-12007,-16451,175477,87398
189023,21400,1728,14812,6358,11372,19905,180235,88986
189163,-28824,-5776,12552,1486,-10553,-20049,175690,87507
189303,20388,1784,17408,3633,9095,16946,179992,89151
189443,-29308,-7204,9744,-4589,6207,-6470,176477,87677
189583,27904,5360,16468,297,-9667,10336,180705,89217
189725,-30640,-6548,7376,-2030,8223,-6769,176360,87571
189865,27352,3152,15132,2116,6977,16949,180417,89085
190005,-23100,-4116,11528,-1882,11870,7885,177113,87937
190145,11908,7556,14880,-4161,-28229,-28889,179313,89063
190285,-16264,188,9328,1428,32767,25997,177699,87952
190425,-3444,5352,16216,-1462,-30624,-28328,178436,88815
190567,-5756,1680,10500,3559,22410,25092,178389,88251
190707,-10632,192,13564,-1417,-32271,-29140,177023,88398
190847,-1024,1544,11312,6436,25831,23325,178563,88471
190987,-6360,1120,12796,-89,-32768,-28986,176620,88365
191127,-9156,1876,12256,2494,28230,21897,177873,88066
191269,2332,1144,13436,-2191,-27953,-21254,178072,88605
191409,-8120,2192,11580,1934,18748,25023,177626,88089
191549,-11384,-896,15592,-1855,-16983,-18406,176666,88176
191689,3488,-3108,11688,-1376,2229,9117,175120,87580
191829,-21024,-6512,12876,1334,8989,-12981,175610,87488
191969,9948,-1600,13592,5396,7193,10918,176714,87899
192111,-14580,-2424,14972,2932,7043,3465,175225,87452
192251,3352,-496,14504,-4545,-4448,-8028,175781,87693
192391,-11244,2272,13556,-1,20413,12416,174952,87415
192531,18580,1232,12744,-1650,-26618,-9162,175145,88265
192671,-17908,1948,13168,-1307,17095,19193,174117,87164
192813,-4144,3196,14044,-4076,-17672,-29474,176348,88041
192953,-9616,1820,11556,-1694,16415,27438,174016,87189
193093,-12848,-2952,12248,-1524,-13388,-25728,175190,87759
193233,1680,396,11924,4278,12654,23941,174819,87596
193373,-15920,-4080,12780,695,-18526,-29440,175357,87801
193513,-148,1072,11912,5916,17720,25112,176443,87952
193655,-17104,-5012,13336,910,-14668,-25171,176118,87882
193795,7912,2488,12388,6358,15527,22609,177144,88099
193935,-20136,-6068,13712,-2405,-16819,-26900,174805,87662
194075,6296,5072,11708,6978,30685,24462,176778,88058
194215,-19060,-4656,12972,276,-7932,-16391,175370,87661
194357,14720,1932,16004,-101,6489,17343,177747,88213
194497,-23696,-6624,12724,-3487,-457,-12556,174901,87389
194637,22652,2496,16480,782,1009,10400,177920,88471
194777,-25848,-7588,11008,-452,10874,-8013,175093,87481
194917,18392,3132,16092,6828,21322,22431,179229,88671
195057,-23972,-6044,12244,-1777,-2893,-14074,175707,87665
195199,21268,4248,18536,-3132,-2146,5843,179649,88934
195339,-32392,-9828,7076,-1364,10619,-10381,175271,87430
195479,28236,11768,20216,-2148,-3237,7352,180054,89149
195619,-15880,-3660,10472,-5341,10591,17258,175074,87469
195759,2196,-448,14420,12689,-17555,-29543,175551,88474
195899,-15508,-1400,14804,-5051,18809,27846,176411,87780
196041,-6456,-3356,8728,5544,-12409,-29882,175497,87927
196181,4164,1416,15192,-1506,9565,29793,177193,87883
196321,-18368,-8080,7024,-164,-10544,-25753,175118,87737
196461,20688,6152,15664,3231,14999,20815,179661,88725
196601,-22056,-9328,7544,-4561,3139,-15155,175756,87717
196743,29972,15116,24524,4497,-4771,10234,179900,88964
196883,-16872,-6736,11348,-3299,9519,3144,176482,87785
197023,21600,13916,25168,2240,-2056,9280,179891,89089
197163,-24524,-7012,10548,-6455,4091,-9169,176806,87952
197303,25868,10268,24380,-2608,-8535,3128,179569,89066
197445,-20208,-4176,10508,-8357,14857,11655,175750,87564
197585,12336,6916,25464,3529,-28438,-24386,178378,89217
197725,-19644,-4220,9476,-8236,13202,28069,175535,87517
197865,15896,8996,30136,-18356,-27182,-22610,179684,89193
198005,-1852,-9416,-7184,12074,6778,17247,172849,87177
198145,-1496,7480,32767,8991,-6961,-4243,179685,88721
198287,760,-8488,-2852,-17670,-6754,-10059,176328,87653
198427,-7948,1752,32284,22466,9914,2850,177596,88528
198567,-1736,-8136,2508,-24589,-4045,-65,176851,87818
198707,-7604,-2776,5952,32767,19719,3198,174266,88007
198847,-6588,-8136,13056,-32647,-6782,-2593,179415,88507
198989,-5916,-3480,-5224,24522,-1361,6797,171895,86807
199129,3980,1388,32767,-22219,-6270,-5618,179819,88693
199269,-5252,-9048,-5820,6206,-838,3680,172192,86996
199409,9264,14040,32767,117,-14248,-6429,179034,88717
199549,-3828,-5720,-1424,-10668,-2605,-4888,172281,86775
199691,-4828,2300,32767,23418,241,-3681,175713,88489
199831,-2216,-8684,5356,-18068,-2653,4439,173610,86840
199971,-5024,-8900,10816,27830,23892,-3368,174140,87730
200111,2744,-9360,12664,-22791,-14779,341,178718,88362
200251,-7572,-5396,588,21622,4543,6600,172383,87022
200391,7188,2848,25668,-19263,-18134,-3548,178293,88460
200533,-8936,-8312,2196,6000,8333,7377,172413,86957
200673,12012,6396,28652,-13171,-11345,-7668,176684,88037
200813,-2848,-9984,-1296,7487,5071,7086,171485,86925
200953,-136,13220,32767,7237,-18746,-9645,176485,88594
201093,-2040,-8888,2360,-15549,-276,220,171853,86872
201235,-14848,-5680,13772,24981,22588,-3559,173159,87086
201375,4348,-12444,7348,-23484,-18832,2137,172982,86903
201515,-6128,-5316,1720,25711,14344,7862,172478,87095
201655,6136,1552,26880,-19246,-10671,-1245,177341,87944
201795,-6436,-10200,3988,-8005,3646,-7482,172358,86928
201935,7676,3716,25984,26405,16367,12207,176213,88468
202077,-4684,-6724,11008,-27501,-22151,-22582,173908,87032
202217,10916,-260,8112,18125,29265,26518,173660,87662
202357,-30568,-10676,11808,2153,7532,-8666,176115,87847
202497,24356,-524,17120,-4636,2792,4934,180824,89375
202637,-23316,-2628,11440,-5835,17843,18396,177132,87798
202779,7124,1648,19888,-3371,-19187,-32428,179960,89445
202919,-9300,-3384,11468,-4031,9820,32767,179144,88374
203059,-4940,-7164,7448,-1417,-848,-32768,178184,88849
203199,-3800,-6844,9960,881,1045,32767,180342,89096
203339,-9544,-9020,5620,-972,-1836,-30495,178301,88679
203481,5308,-9456,8304,1904,4437,30134,180085,89046
203621,-21528,-11892,5480,-587,-4629,-31886,178424,88814
203761,16420,-11416,9188,825,5666,13132,180946,89403
203901,-25996,-14556,4872,-5223,14302,-9697,179130,88608
204041,25616,-5804,11084,4584,995,10990,180533,89374
204183,-28220,-13856,8284,-4752,22021,-2539,179053,88330
204323,25372,-9852,11908,2259,-1185,-1744,180328,89237
204463,-20508,-9560,10200,-5528,19850,10826,179951,88470
204603,22892,-8048,13452,1398,-15962,-12615,180137,89352
204743,-18808,-9596,8588,-8896,22118,14111,179011,88291
204883,23000,-10044,10060,3557,-15452,-10751,179007,89098
205025,-9472,-8080,9916,-566,12924,22573,180402,88812
205165,14968,-10064,11956,3590,-19522,-19634,179678,89177
205305,-12300,-8124,9740,-4104,14585,17654,180188,88721
205445,13112,-9824,12436,3777,-18313,-25686,179355,89155
205585,-13536,-9068,7204,-4774,18349,19596,180015,88530
205727,23820,-9628,13700,4584,-20306,-11512,179858,89273
205867,-22336,-10156,5728,-5193,20878,7696,179821,88572
206007,30168,-5808,17716,4524,-21316,-8530,179710,89298
206147,-29268,-10168,5720,-4927,25722,8579,179933,88559
206287,32767,-1312,18624,3709,-18455,2006,180560,89414
206429,-32768,-9824,4304,-1839,28496,4601,180369,88552
206569,32767,480,17620,1784,-18695,1220,180674,89365
206709,-30612,-11696,7208,-7352,24122,1096,180158,88709
206849,31484,-1884,16068,3602,-16175,-4555,180623,89520
206989,-8484,-3844,15576,10025,2509,24881,181213,89120
207129,688,-2072,14704,10975,-2594,-32768,181130,89346
207271,-1340,-2056,14176,9921,-5658,30485,181176,89254
207411,-19044,-5500,11076,3491,-10281,-32768,179184,88792
207551,8232,836,13948,2682,13948,24642,181594,89564
207691,-27012,-8468,9712,-3375,13414,-14796,181303,89164
207831,28424,6180,18768,-871,10047,10919,182142,89661
207973,-14372,-2160,10976,-4361,16200,11078,181407,89170
208113,20032,7780,25464,936,-27508,-21796,181828,89693
208253,-6740,-2016,13636,-1590,5443,25716,181540,89420
208393,-4756,-556,12368,7154,-23933,-32655,180015,89424
208533,-1780,-2736,12136,1558,-2356,31679,181160,89294
208675,-12976,-4108,8356,6831,-15850,-32768,178728,88715
208815,6424,-1536,12580,-682,4174,24573,181336,89271
208955,-25604,-10528,7540,-989,15248,-17260,179933,88788
209095,27920,8264,16988,3362,22492,16409,182062,89590
209235,-18492,-3960,8272,-8461,24163,208,180442,88894
209375,27768,11464,29284,302,-28277,-15285,181676,89760
209517,-12476,-2728,10876,-3305,11251,23567,180569,88807
209657,2080,784,13028,13215,-22988,-31936,179518,89634
209797,-7796,-3616,16448,-161,-83,29711,179865,89030
209937,-9348,-3392,7816,6897,-18953,-32367,177328,88484
210077,3456,1232,13268,2885,17171,30366,180245,88953
210219,-17764,-5056,7008,9503,-4109,-31360,178485,88471
210359,15192,2492,15040,273,19466,28637,182245,89561
210499,-18476,-4900,9396,7573,-5946,-15241,179562,88960
210639,9604,1044,14708,-568,10050,14935,181987,89627
210779,-24652,-3732,8624,6896,8231,-11378,179272,88734
210921,23736,788,18160,-2406,707,19160,182522,89810
211061,-30028,-4524,6420,-2620,10928,-5723,180048,88810
211201,28960,5732,16456,-4408,-11916,8639,182487,89907
211341,-24604,-3904,9360,-3653,11421,-3057,180300,88963
211481,32060,10764,22288,-3789,-16151,-1560,182745,90018
211621,-16164,-5456,11016,-5051,9112,7273,180642,88974
211763,24008,8096,23356,-2096,-25710,-10826,182377,89965
211903,-13232,-4216,10684,-3315,15987,15485,180704,88969
212043,21400,7804,27620,-1350,-28796,-13220,182396,90099
212183,-10680,-5344,9536,-3063,7583,12745,180352,88959
212323,-3680,-1276,16296,17652,-4755,-9925,180105,89527
212465,-12004,-5112,15260,-7764,8464,12338,180166,88897
212605,3840,2160,16356,834,-19788,-23358,180887,89643
212745,-8960,-2444,13316,-2546,9467,23145,180374,89135
212885,-2740,-3196,10920,2363,-23622,-29002,179069,89415
213025,-10628,-5836,13188,1486,14427,24999,179949,89023
213167,-972,2640,15084,-4006,-22961,-32341,180481,89604
213307,-7684,-112,11352,2705,7369,24660,180767,89128
213447,-6280,-624,12944,-1292,-24379,-32768,179341,89357
213587,-5320,-2376,10828,4678,10980,27327,180150,89166
213727,-12044,-2252,12516,-186,-17303,-32768,179110,89126
213867,-956,472,12524,4082,10026,27036,181063,89320
214009,-14624,-4744,12320,-326,-12876,-28510,179235,88950
214149,7392,-36,12712,2911,10364,25033,181207,89420
214289,-24304,-8228,11244,-233,29,-18310,178772,88708
214429,16296,2040,15068,1743,15642,18824,181773,89502
214569,-20180,-7400,10052,-223,12808,-5023,179314,88690
214711,29964,5700,20488,-1914,-654,6749,182001,89752
214851,-19044,-5012,10672,-2845,14266,7736,179687,88712
214991,27820,7992,22640,-6138,-26439,-11937,182001,89997
215131,-13600,-4804,11760,-5311,12807,20214,179928,88829
215271,13340,92,20460,970,-26990,-19150,180758,89845
215413,-12276,-6844,16416,-15966,2321,22395,179685,88932
215553,2572,-8952,-2672,-9116,-12377,-27693,176530,88229
215693,-7084,-1036,22052,10621,19993,24599,181217,89271
215833,4216,-8348,5728,-23481,13098,-25870,181202,89515
215973,-14020,-8256,4132,-9353,4472,32767,181468,89333
216113,-3044,-11768,-2440,4006,-1800,-32374,179495,89127
216255,-1020,-10376,8824,5486,-7892,31438,181726,89589
216395,-9612,-11812,4640,-344,-7704,-32768,181592,89624
216535,-1984,-7612,5348,7830,835,32767,181818,89689
216675,-10668,-13232,4080,-1020,-2132,-32768,181925,89691
216815,13420,-10320,6268,5645,3993,27435,182074,89763
216957,-27164,-14464,3852,-6856,-4179,-27016,181312,89462
217097,20712,-9652,4416,5207,278,16680,181944,89763
217237,-29996,-13836,6808,-1729,9930,-4682,181447,89378
217377,29096,-8916,8568,11522,-19593,-3364,182060,89894
217517,-27132,-5080,12604,4145,17288,17341,181471,89155
217659,20112,-2656,12992,3401,-30563,-25439,181480,89727
217799,-9860,-4440,14644,5111,3289,27946,181404,89280
217939,920,-7132,4392,4477,-17906,-32768,181441,89732
218079,-1080,-4568,14108,10545,8327,29503,181529,89465
218219,-10732,-6052,10532,-105,-10453,-32768,180416,89412
218361,12136,-3432,10456,7462,13301,29153,181748,89588
218501,-24208,-10172,10364,-1312,132,-24483,181353,89343
218641,24432,-1836,13268,3766,5747,18610,181967,89822
218781,-31148,-10080,9148,-4202,16738,-6403,181305,89320
218921,32767,2380,18020,-397,-14422,1613,182192,89950
219061,-28692,-5548,9084,-4750,19193,11279,181669,89308
219203,27748,3736,23072,2691,-30879,-13676,182559,90113
219343,-12268,-3108,14128,-4132,11654,19857,181577,89334
219483,7812,-1152,12772,-867,-24351,-32768,181176,89827
219623,-8128,-5248,14844,1454,2362,30126,181364,89432
219763,-1120,-5176,11624,-2161,-17084,-32768,181175,89642
219905,-9432,-4316,12368,-3721,10033,25985,181945,89534
220045,-2800,-9820,6832,2061,-6727,-29427,181667,89571
220185,-5156,-7788,10124,-1355,-1994,29798,181494,89583
220325,-8752,-9128,6364,1953,-9254,-30240,181319,89583
220465,-3772,-9844,11344,1221,4786,23245,181606,89599
220607,1624,-11956,-436,19674,-19768,-10553,181258,89678
220747,-2928,-2660,32767,-9050,4265,-2261,181630,89489
220887,5424,-10788,-2656,-11584,-7167,-2350,181209,89653
221027,-12032,-1040,28436,27956,6964,12201,180435,89301
221167,-1228,-7184,-1348,-28429,-6029,-12230,181366,89659
221307,-12300,-3552,19576,31438,8009,8839,180714,89316
221449,-2996,-5732,620,-32768,-889,-5450,181931,89773
221589,-10620,-3024,12284,32767,7700,4296,181155,89308
221729,-3240,-6428,5464,-32768,-1520,-12854,181592,89749
221869,-4244,-3824,-716,32767,11656,9723,180750,89340
222009,-3680,-10032,19896,-32356,-3910,-4906,181333,89588
222151,-480,-8792,-4316,23977,8865,9122,181116,89526
222291,3592,-6796,29252,-22249,-3067,-1517,181725,89597
222431,272,-9592,-4480,14467,4847,8859,181629,89736
222571,7996,700,32767,-10705,-6870,-2778,181394,89618
222711,3856,-11748,-3764,-5325,-5923,-432,181116,89618
222851,-6904,288,32767,19926,-2510,793,180716,89333
222993,-1032,-7160,2048,-27845,-4083,-9021,181817,89814
223133,-7936,-6096,5844,32767,12495,6823,180244,89181
223273,-5608,-8308,14144,-32768,-2004,-4851,181688,89760
223413,-644,-4676,-1172,29657,18181,13802,180817,89345
223553,-4336,-6740,24500,-28628,-5786,-10038,181135,89494
223695,4896,-11112,-4404,13246,1300,6146,178807,88910
223835,9200,2908,32767,1367,-17377,-2806,181645,89571
223975,2684,-12232,-1848,-10389,-12352,-1158,181125,89359
224115,-5068,768,27072,32767,-17747,-1821,178094,89113
224255,-3160,-2824,6312,-32768,2074,-8736,179588,89104
224397,-3908,-4356,364,32767,17422,11173,178899,88803
224537,-8628,-7776,20644,-31721,-9218,-11676,181417,89416
224677,812,-7812,-3448,21846,10285,11561,180998,89396
224817,6520,-2280,32767,-15658,-11707,-4327,181840,89626
224957,-3768,-10208,-3796,-3367,248,1869,181241,89432
225097,3744,3168,32767,16965,-12487,-5404,181010,89522
225239,-2224,-7684,1336,-23772,1842,-409,181743,89590
225379,-6928,-3896,6668,32767,8425,2072,180441,89167
225519,-2548,-9280,16900,-30445,-2771,2121,181985,89782
225659,-708,-8692,-1804,10250,1533,-1136,180106,89171
225799,21020,9132,32767,1272,-15433,-112,181444,89642
225941,-1036,-6008,3664,-9563,2185,8288,181487,89456
226081,-8388,-1944,24076,28121,4196,-452,180521,89315
226221,-1144,-6276,8780,-28999,-2488,360,181945,89779
226361,-3308,-5560,-536,27016,12537,2406,179369,88997
226501,4036,-7728,21796,-20162,1940,3757,181438,89564
226641,-5256,-3232,7664,9800,10456,16863,181230,89337
226783,6776,-840,17284,-8515,-10430,-31756,181440,89640
226923,3196,-396,12800,5842,9254,31747,181746,89569
227063,-9580,-6372,11716,-5905,-6460,-32768,181300,89590
227203,12872,-4940,9096,12753,4862,22809,181797,89768
227343,-25832,-10004,20984,-18527,877,-16545,181247,89454
227485,10756,-13104,-2180,5200,-732,-1692,182082,89802
227625,1200,-400,32767,10726,150,9108,181837,89462
227765,4556,-9104,4212,-19111,2114,-12094,181583,89737
227905,1016,608,9248,32767,2171,16183,180186,89444
228045,-8388,-5076,20692,-16829,-15528,-22384,177918,88677
228187,11100,-1004,3784,16564,22999,22322,180476,89290
228327,-18504,-5336,20140,-9022,10577,-12890,178419,88392
228467,19808,-2576,10664,6881,-7059,-4278,180429,89688
228607,-16076,2188,18840,4368,22249,15505,180080,88866
228747,15068,5604,15856,-7105,-21159,-25722,181389,89895
228887,-6456,2076,12748,142,13237,32767,181160,89385
229029,-7240,1460,10332,-5083,-18822,-32768,179082,88936
229169,9652,-180,9744,11745,12380,27823,181243,89568
229309,-26560,-6984,13400,-2663,-4775,-23845,178690,88619
229449,24656,112,16728,3398,5695,12738,182226,89918
229589,-14836,-2920,11164,3574,8415,9648,178747,88614
229731,10220,5484,18644,6942,-8668,-13455,181446,89676
229871,1804,1748,13712,6469,-342,1697,179915,89156
230011,252,2176,15140,-220,-3279,-2877,178074,88779
230151,436,3384,14544,-731,392,-703,177287,88397
230291,700,3208,15284,-377,66,-253,176604,88219
230433,1180,3404,15152,-481,258,-508,176147,87995
230573,556,3136,15024,-18,463,-105,175659,87875
230713,740,3276,14956,-137,374,-38,175224,87818
230853,-1304,10552,30360,-13882,-17125,3492,176170,88789
230993,-1872,-4084,4108,-32768,8309,6305,176436,87904
231135,472,-7552,-1276,13776,1537,5920,174052,87382
231275,6236,5380,32767,11447,-13167,-3851,181269,89553
231415,-1300,-4844,2980,-32768,5319,-5549,179376,88589
231555,-5308,-4612,-2432,32767,12516,5782,174205,87813
231695,1420,-7924,24660,-32768,11018,-643,181610,89564
231835,100,-9080,-6060,14218,-2820,6960,174033,87494
231977,16116,11544,32767,1027,-21483,-3578,181350,89627
232117,-1332,-7160,-1752,-17862,1113,1213,176951,88043
232257,-5388,-1840,29860,32767,5653,3459,177562,89431
232397,-2252,-4968,2512,-30201,-8043,-11685,179674,88813
232537,-2432,-3260,8420,32767,6691,3929,174404,88132
232679,-1356,-5596,15068,-29757,-7124,-1058,180768,89266
232819,-900,-2024,3776,32767,8586,3903,173826,87835
232959,-788,-5824,14180,-32768,-6002,-2986,180513,89204
233099,-1620,-2984,-572,32767,11606,3822,174093,87716
233239,16,-7764,16732,-32768,-6900,-2477,180857,89454
233381,340,-4668,-4128,30453,12541,3593,173908,87562
233521,5532,-3864,28348,-15489,1899,13542,181227,89513
233661,-19440,-5200,5008,-1564,12516,-28489,177691,88531
233801,23872,-3344,12464,5604,5914,22712,181189,89707
233941,-29828,-8320,13108,-3381,9395,-15128,178349,88633
234083,32120,-1316,14624,951,1431,5372,181732,89827
234223,-26880,-4624,15020,-3303,20973,5732,178968,88742
234363,29508,5192,17560,-1022,-10574,-18638,181618,90054
234503,-9696,-888,15996,2161,7767,25232,179065,88944
234643,6704,2024,12268,-2761,-18540,-32768,179895,89666
234785,284,1708,12744,9116,7173,32767,180195,89283
234925,-8036,-2464,11664,-2218,-16531,-32768,180265,89579
235065,12940,-1192,11304,8138,3267,28034,181354,89703
235205,-26828,-8184,14104,-5084,1121,-21422,178895,88966
235345,26428,-2688,13192,1184,9084,16709,181961,89953
235485,-30948,-6404,11372,-5747,17785,-4514,177771,88422
235627,32767,1388,15136,663,-12381,1061,182630,90127
235767,-21940,-3936,12920,2345,15218,9240,178682,88558
235907,26872,5200,20032,2546,-12033,-3025,181450,90007
236047,-10668,-4480,14316,-3341,881,4939,178682,88851
236187,1448,-3160,15220,-3154,3223,50,180332,89431
236329,-1288,-4144,14480,-1142,1165,3966,179964,89284
236469,-1348,-4472,14876,-2166,673,568,179269,89143
236609,2008,-3616,8156,8553,-3113,2863,176870,88541
236749,3008,4188,32767,-11014,-11660,-11666,180160,89415
236889,5148,-6252,-1208,-8571,2265,-933,174749,87691
237031,-4384,8332,32767,11663,-11070,-3116,178029,89264
237171,1724,-6636,-5564,-10816,1586,350,173922,87439
237311,-2664,5312,32767,19511,-7740,-7290,175809,89377
237451,612,-3424,944,-22234,194,726,176836,88173
237591,-10504,-1908,27876,32767,10970,-2515,174591,88527
237731,24,-5376,4656,-32249,-1420,2425,178350,88539
237873,-5332,-1608,4052,32767,11384,-67,173455,87596
238013,-1576,-6516,15104,-32768,-714,3356,180543,89153
238153,-3668,-4388,-2664,29816,7156,506,173374,87640
238293,6692,-8712,23052,-28501,-3319,4278,181553,89666
238433,-4928,-5460,-2272,19110,3707,1241,173534,87597
238575,22524,3532,32767,-14638,-7166,2722,181159,89701
238715,-6736,-4628,-208,-5668,-700,2780,174342,87488
238855,8136,7780,32767,14500,-11016,-8814,180411,89868
238995,-2748,-3720,3208,-13331,2969,3151,176526,88083
239135,-3392,1056,32767,23867,-867,-5600,177072,89567
239275,-884,-3856,4992,-26519,-1722,-906,177678,88485
239417,-5628,-2348,6840,32767,12763,-836,173840,88049
239557,-2488,-6980,11652,-32768,-2778,2910,180421,89031
239697,-2680,-4580,-332,30131,11848,-283,173415,87629
239837,-96,-8684,18660,-32768,1744,5239,181078,89456
239977,-1992,-6208,-3044,23630,3841,1437,173071,87513
240119,11176,-4968,27572,-18406,-5869,2985,181325,89685
240259,-3184,-7440,-816,10825,3584,1483,173897,87598
240399,20360,7068,32767,-2820,-11357,-13,180958,89660
240539,-1944,-6704,2828,-10803,4039,-17623,173765,87602
240679,7936,892,17092,15719,8130,32767,178515,88773
240819,-8576,-4572,13284,-5939,-7272,-32682,177348,88959
240961,12836,-1308,12572,6580,2221,25666,181027,89676
241101,-25156,-7364,13624,-3005,9865,-8525,176949,88326
241241,24032,2276,19788,-583,-7617,-10954,181558,90182
241381,-16608,864,16588,-252,12306,23011,177921,88502
241521,8144,1244,15348,-2679,-6995,-31240,180846,90006
241663,-1488,592,13808,4651,-489,31559,179867,89238
241803,-3792,-3728,13424,-3245,-1322,-32378,179200,89330
241943,8772,-1400,12468,7025,1224,30192,181008,89665
242083,-16580,-6372,10512,922,-7344,-27836,177121,88829
242223,17556,-2740,12204,5812,6079,26750,181200,89670
242363,-23820,-6900,12824,-488,-641,-23019,176573,88391
242505,24904,-1512,13120,3866,6149,18230,181848,89947
242645,-29432,-7420,12656,-4455,10075,-9918,176996,88380
242785,30240,1032,15028,3872,-8550,3420,181614,90166
242925,-21628,-1532,17008,-1626,16576,9318,177370,88415
243065,21884,3676,16104,-5558,-11738,-19483,181194,90079
243207,-7708,1196,17184,5884,7112,27350,178296,88759
243347,4852,-532,10520,-16377,-9314,-32571,180632,89673
243487,6396,3140,17336,19337,5848,28084,179149,89255
243627,644,-3376,14632,-22016,-10231,-26273,177401,88973
243767,11784,-1400,5404,21881,-297,19412,173783,87997
243907,-18112,-7172,24376,-11914,6427,-9383,174863,87820
244049,17656,-5228,2920,-4148,-4318,-7098,174112,88000
244189,-5260,68,23956,10745,7891,22964,174856,87935
244329,6324,-2532,9060,-15624,-5492,-25747,175413,88349
244469,7888,-368,10768,23542,3010,22889,173509,87770
244609,10116,-4292,23980,-16728,-6242,3738,179893,89630
244751,-12608,1924,2556,3107,17300,3691,176499,88107
244891,21328,2012,32767,6371,-14956,-11133,180809,89843
245031,-6216,-2364,8628,-14195,2877,10728,179431,89105
245171,-7744,-5540,10416,21074,-2948,-17899,175519,88868
245311,2052,-6488,14496,-17371,-1548,18837,180621,89565
245451,-15804,-4708,3316,12457,3180,-16491,175328,88122
245593,22192,-4804,21660,-11474,401,8179,181636,89928
245733,-20052,-5508,3780,1874,5309,-1032,176605,88336
245873,28464,9312,32767,6983,-8524,-539,181315,89917
246013,-5576,-5012,7524,-29915,9360,-20187,176596,88457
246153,14216,-4784,6484,22691,674,18810,177190,89123
246295,-21772,-9060,23204,-6615,2861,-4810,177770,88647
246435,17488,-5324,7588,479,-7826,-4386,179372,89445
246575,-5372,-2424,23836,9232,2328,18196,177433,88759
246715,10460,-3176,7816,-14938,-3826,-25310,177307,88956
246855,5424,248,14056,17196,2407,28827,177596,88788
246995,-1232,-5016,15404,-10918,-8213,-28739,176978,88950
247137,20516,-3756,10124,8452,1038,20278,180043,89638
247277,-16404,-3724,11524,-7973,12743,18027,178298,88497
247417,-6284,-672,12108,29412,5019,-20784,176293,89367
247557,1012,-6696,14060,-20353,-6474,13578,181247,89602
247697,-10140,-5688,3604,12038,3305,-13573,175079,88031
247839,13780,-4288,22968,-12432,154,9915,181079,89720
247979,-12220,-5960,1152,6304,4971,-3912,174676,87808
248119,27792,9700,32767,-8147,-14183,2179,181610,89853
248259,-5116,-6504,2096,-19468,6797,-10627,175180,87929
248399,10352,3300,23184,32767,-17256,4379,174622,88895
248539,-1988,-5948,9464,-30220,-1508,-10587,174215,87700
248681,3580,-4796,3216,32767,6479,5596,172907,87546
248821,-3748,-6532,20632,-27912,-1437,-1946,173964,87704
248961,9596,-10052,-2104,10540,7236,2588,172757,87531
249101,4128,-3392,28532,-12197,17287,13358,177044,88222
249241,3900,-9168,352,-3489,5402,-8795,173176,87541
249381,4136,1320,30760,23791,-16003,-13576,176860,89492
249523,664,-5428,10144,-17909,-8006,22352,178819,88991
249663,-9468,-8436,2512,14608,10067,-21717,174995,87809
249803,21056,4200,24616,89,-16941,-257,181053,89937
249943,-11848,-3748,13516,-8065,700,20129,178714,88779
250083,-1620,-6704,6404,14954,1479,-28656,175176,88477
250223,3500,-5524,17372,-6445,-16726,18773,179031,89119
250365,-14660,-9664,6408,-4321,13765,-11070,175899,88042
250505,32767,6404,19092,3818,-3954,6662,180652,89422
250645,-10320,-4036,18068,-12112,15059,12438,176015,88166
250785,11916,-10020,428,-1158,5439,-9058,173219,87591
250925,7088,4348,26724,14649,493,8456,174993,88220
251067,5896,-5120,7152,-23847,-15312,-20632,173272,87388
251207,5800,1940,12444,32327,10888,13467,173100,87655
251347,-3008,-5728,17708,-21837,-9256,-8310,174359,87866
251487,8884,-8324,1872,9691,13868,6627,172418,87411
251627,8440,3656,30452,785,7056,16116,177076,88351
251767,1920,-5600,5344,-24735,344,-12160,173309,87423
251909,-1504,-1972,6144,32767,6082,8375,173252,87777
252049,-4176,-5536,22732,-26467,-4255,2039,176745,88557
252189,2988,-9108,-400,-6137,3578,-2539,172687,87437
252329,-1560,5540,24020,32767,-9448,-1768,175125,89030
252469,-1876,-6040,13828,-32768,-3522,3541,177819,88700
252609,1912,-8128,-560,14230,8632,2542,172892,87447
252751,20020,9192,32767,7433,-13462,-622,180032,89323
252891,-456,-4588,6568,-29447,1629,-11303,173885,87487
253031,4872,-4388,776,32767,3544,6520,172531,87494
253171,-12592,-7344,25616,-24959,9178,4920,175052,87901
253311,8188,-8996,-1944,-2399,541,-10922,172502,87389
253451,13288,6444,32767,20087,-6177,11748,175196,88180
253593,3240,-5596,3508,-24269,-14907,-22130,173452,87601
253733,31164,7416,17368,16852,-6874,18765,176149,88645
253873,-17756,-3408,12912,-9965,21705,5949,175680,88046
254013,22928,2284,20812,6730,-14789,-21955,179128,89856
254153,-2608,-4160,9368,1406,-1672,24744,176085,88272
254295,-7372,-6220,12196,9752,-13778,-32768,175887,89036
254435,6524,-3664,10020,-1046,-3107,31930,180543,89247
254575,-15064,-7452,11188,2903,-2263,-28669,176602,88476
254715,16240,-5024,12496,2275,3229,20032,181411,89896
254855,-21132,-11528,14960,-11363,8781,-8470,177259,88500
254995,13984,-8664,7048,-4114,-7485,2470,175950,88134
255137,-6788,-6880,6480,24689,11617,6033,174335,87785
255277,8600,-2808,25032,-21700,5060,1578,180508,89509
255417,-1284,-8312,872,-13056,-2035,-10972,173855,87712
255557,4676,-780,11416,32767,-3175,-3272,173801,88620
255697,-6204,-9276,20040,-22200,-3363,-708,175460,88084
255839,6936,-7936,1616,-1733,6701,-9526,172616,87444
255979,15616,6020,29172,10949,6364,12755,175585,88313
256119,1164,-6352,7976,-26348,-1428,-4346,173519,87533
256259,232,-5200,1680,30089,11406,6057,172378,87453
256399,-2664,-9032,20456,-30855,4222,6008,176781,88545
256539,2068,-9632,-2988,6559,11850,7250,172510,87381
256681,5716,6020,32767,12689,11526,2287,180781,89533
256821,-536,-7436,5752,-24269,-1131,-2680,179126,88799
256961,-3880,-7228,1056,29010,7635,2002,173927,88238
257101,4696,-7332,24456,-21257,-17929,-583,181205,89707
257241,-3248,-10836,-584,1683,2339,7122,173599,87730
257383,-404,3028,32767,22913,-9208,-10393,176188,89325
257523,-1608,-6164,4592,-27049,1779,-237,176331,88029
257663,-4168,-4252,1452,32767,12374,5106,174568,88104
257803,-448,-8116,19976,-27310,-5164,2133,181451,89779
257943,-5004,-7024,-628,15848,4253,4826,174861,88139
258085,8956,6756,32767,-7801,-9340,-2259,181361,89832
258225,-7880,-7568,3452,-10226,5997,3455,177510,88516
258365,-9644,-2596,29268,22644,-4839,-11976,179141,89753
258505,-2192,-7712,5448,-22024,-1826,4122,180460,89377
258645,-8088,-6552,808,30558,12249,-3353,175777,88551
258785,2588,-8392,21936,-20174,-8265,3361,181263,89778
258927,-5976,-7596,976,7189,1190,-3284,175428,88081
259067,16604,9476,32767,-3634,-13296,-5103,181768,89985
259207,-3996,-7036,3224,-4550,1933,1764,175292,88017
259347,4492,3000,31840,11102,-5750,-9416,180563,89817
259487,-2832,-5440,6520,-10972,530,2896,175951,88141
259629,-4984,2504,23800,20814,3165,-1649,177537,89549
259769,-2324,-5340,8500,-19118,-710,3497,177369,88484
259909,-5224,-3484,14464,19870,7181,-1014,175028,88588
260049,-1364,-7252,11720,-19661,-3162,3322,176323,88273
260189,-3436,-5204,7708,21353,8556,-312,174391,88167
260331,1240,-8340,14004,-24143,-5484,-3189,177755,88631
260471,1520,-6336,2908,23679,6431,3233,173967,88017
260611,160,-9288,20032,-23998,-4541,-3189,179631,89427
260751,-232,-9324,1752,6637,9334,3202,173900,88410
260891,-3252,-8320,19872,-17418,3833,-7,181816,89958
261031,-836,-11304,2164,-6375,6384,504,174640,87926
261173,860,-5336,11536,16549,3955,857,178541,88946
261313,4376,-15016,18496,-7022,-24248,-7751,179250,89064
261453,5180,-12908,6572,-14995,-8674,17110,176086,88537
261593,2036,-11168,5676,-1850,1008,9936,175099,86766
261733,1936,-11968,6784,2969,-2697,1257,174352,86659
261875,-616,-15308,9224,1754,2887,-1069,175175,87270
262015,-1044,-13276,6252,-2062,2901,1208,176274,87627
262155,800,-10340,6292,2229,16167,-11964,177744,88714
262295,-2000,-14248,9724,12713,20960,-20891,182442,89614
262435,2400,-10116,14080,4078,5191,-8938,182330,89614
262575,416,-11688,10568,752,-1521,1435,182277,89624
262717,1632,-10208,9136,6184,-4506,6245,182499,89710
262857,360,-9980,12856,8858,-3544,4086,181870,89581
262997,208,-4164,16636,2539,-1899,530,182037,89780
263137,-248,-4844,14264,416,-1567,294,182109,89702
263277,1328,-5912,14752,1779,-3349,-794,182151,89736
263417,1320,-5400,14048,231,-636,-902,181521,89523
263559,2084,-4804,15004,-191,888,-681,181285,89445
263699,-804,-11824,16572,-8066,7557,5929,182223,89691
263839,92,-11852,8800,334,-1170,3811,182502,89781
263979,460,-1632,14500,6314,2806,1895,182630,89723
264119,-548,-1960,14068,3590,-3498,-1343,181927,89536
264261,-1608,-2912,14136,2972,-943,-1339,181092,89267
264401,-1236,-1680,15740,1300,-1038,-1987,181320,89338
264541,-660,-3476,14844,-180,-1209,230,181729,89548
264681,2132,-2828,15836,-3101,-2051,1048,182541,89733
264821,-2136,-3940,15056,-2962,3994,2098,182229,89763
264961,-1480,-6532,14172,-3272,-2588,480,181957,89751
265103,-216,-6160,14300,-1220,-2710,-12,182120,89854
265243,-496,-6292,14240,-1092,-1979,-298,182234,89896
265383,1076,-6340,13984,-130,-619,-333,182256,90053
265523,1744,-5980,14208,-3263,5931,1919,181655,89781
265663,-4248,-8820,12832,-690,394,-223,180253,89396
265805,1404,-7276,13728,-718,-1426,-140,181499,89691
265945,-464,-7548,13560,-530,-1560,-69,181766,89767
266085,492,-7364,13660,-640,193,88,181918,89900
266225,656,-7544,13596,-339,-566,-144,182046,89925
266365,528,-7652,13636,-238,8,-59,182216,89920
266505,516,-7552,13540,-311,-167,8,182427,89897
266647,684,-7596,13464,-97,353,178,182762,89996
266787,388,-7788,13516,128,158,71,182791,89927
266927,428,-7436,13608,-226,-241,-51,182932,90153
267067,436,-7580,13656,-159,103,-305,183123,90085
267207,544,-7808,13544,-682,-321,-300,183242,90139
267349,928,-7648,13332,8,226,275,183317,90110
267489,296,-7644,13536,-178,119,223,183450,90098
267629,508,-7712,13524,-269,-91,-24,183491,90212
267769,-2544,-8208,13744,-246,481,-291,183552,90226
267909,2024,-8368,13272,-317,1303,-2458,183693,90235
268049,3188,-1836,18120,-8355,13304,4821,183804,90221
268191,-4112,-7232,8656,-10813,-11553,7957,183661,90024
268331,-6072,-9232,9736,8821,-4481,7429,183409,89866
268471,-2908,-7512,14028,18507,1262,-1378,183465,90157
268611,-1840,-4244,15340,16731,-8861,-885,183527,90197
268751,-1752,-668,17400,7527,-6054,300,183439,90252
268893,2908,4236,13448,4931,1106,2409,183443,90352
269033,516,4628,13272,862,1584,3710,183193,90210
269173,3076,5200,14240,-273,-2089,-639,182739,90172
269313,2556,4480,14676,-1333,452,-727,182722,90182
269453,1672,4452,14916,-1047,702,-572,182737,90129
