time_ms,acc_x,acc_y,acc_z,gyro_x,gyro_y,gyro_z,ir,red
50807,-1100,9092,10500,11712,-5250,-6912,167099,79543
50947,-636,16828,10304,11252,-8140,-7229,166766,79636
51087,-348,12760,6468,7439,-8336,-5988,166431,79425
51227,-756,14356,5296,3529,-5718,-4097,165884,79291
51369,-1752,14420,5256,405,-809,-752,165616,79103
51509,-956,14604,4912,1049,-2019,-497,165226,79030
51649,-1364,15104,5240,100,1610,1073,164855,79051
51789,-1644,15096,4812,-380,-588,411,164728,78961
51929,-1060,15600,4704,-502,-670,425,164570,78892
52069,-340,14952,4736,-688,-665,1515,164374,78769
52211,-608,15156,5492,120,2207,1126,164191,78765
52351,-852,16340,6012,-614,5148,249,164065,78792
52491,296,15700,5284,-1336,921,1738,164091,78815
52631,-296,14940,5220,-282,2943,1431,164370,78816
52771,-680,14684,5740,265,550,-665,164220,78806
52913,-480,15196,5944,28,-1141,-1450,164477,78777
53053,-100,15960,5348,326,1591,-94,164308,78793
53193,16,15720,5248,-109,66,-233,164529,78950
53333,-116,15504,6236,243,3395,-22,164441,78897
53473,28,15724,5492,-2580,-1642,104,164404,78873
53613,-1436,13748,5716,-1675,849,220,164591,78951
53755,-88,14536,5652,-810,-286,-124,164856,78958
53895,-540,14172,6284,1439,619,-572,164645,78970
54035,-720,14800,6684,383,-100,539,164614,79017
54175,-476,14728,5784,-122,110,1616,164671,78982
54315,-288,15016,5940,-360,-275,614,164711,79003
54457,-8,14924,6036,-517,3575,444,164801,79003
54597,-376,14328,5636,-2031,-1674,51,164744,78956
54737,260,14384,6800,423,2825,-76,164839,79218
54877,-896,14072,6076,-471,1261,1153,165680,79313
55017,-1544,13148,5744,2183,4384,209,166173,79468
55159,-884,14760,6392,1142,-1202,-963,166374,79435
55299,-244,15192,5628,-538,-1406,122,166239,79423
55439,-48,14908,5524,-221,-662,145,166262,79541
55579,-772,15104,5952,-567,867,644,166190,79468
55719,-992,15128,5872,-896,-850,-417,166046,79455
55861,-324,14388,5628,-28,1162,-929,166081,79368
56001,-376,14688,5840,449,1503,-539,165994,79398
56141,-556,14720,5600,25,982,571,165851,79464
56281,-632,15248,5692,323,1219,697,165853,79462
56421,-992,15260,5512,55,1547,9,165894,79458
56561,-1536,14820,5428,733,3538,-575,166336,79489
56703,-1456,15052,5432,237,3850,-296,166444,79582
56843,-1908,14920,4204,357,967,-243,166346,79579
56983,-1456,15236,4312,336,-1438,121,166131,79610
57123,-1664,14716,4300,1559,496,-284,166031,79501
57263,-1952,16280,4364,-101,-2046,-592,165861,79504
57405,-1132,14988,3492,1423,-3187,-1142,165814,79442
57545,-16,15520,4100,167,-2079,877,165663,79370
57685,-1632,15700,3476,-1370,-2360,521,165392,79437
57825,-1572,15484,4140,-1003,-1878,447,165141,79215
57965,-236,15472,4928,-1007,1683,293,165013,79232
58107,-224,15544,4480,-769,5618,847,165389,79299
58247,-748,16100,4324,164,60,80,165398,79300
58387,-572,14904,4440,389,-3776,-709,165591,79478
58527,-180,14896,4272,317,-365,585,165728,79461
58667,-52,16228,4684,1579,-1378,-1443,165746,79487
58809,-456,15484,4152,145,-1789,109,165674,79379
58949,-672,15356,4420,134,-1559,-720,165833,79474
59089,-196,15444,4276,-128,1090,-545,165817,79583
59229,-816,15764,3876,-1743,-162,170,165934,79594
59369,152,15248,3964,-825,1485,416,165833,79569
59509,-524,15772,4360,-1060,1154,456,165957,79584
59651,-80,14812,4800,309,210,-4,166257,79667
59791,-1376,15368,4876,-177,-1635,-563,166060,79636
59931,-424,14916,4724,-245,701,306,165934,79715
60071,-100,15640,4768,798,-366,-355,166067,79637
60211,20,15420,4636,-268,1078,908,166015,79701
60353,-612,15660,4800,355,2067,-692,166142,79657
60493,-360,15252,4572,-793,1427,-446,165973,79687
60633,-704,15572,3856,-878,-830,-54,165972,79793
60773,-460,15164,4156,566,2097,-119,166102,79770
60913,-1012,15320,4236,-32,1568,651,166040,79729
61053,-1048,15520,4328,-273,1181,555,166000,79701
61195,-896,15340,4428,-521,-416,-118,166139,79734
61335,-404,15104,4584,-578,-916,-110,166000,79747
61475,-408,15624,4440,-292,-308,24,165921,79778
61615,-496,15152,4572,814,836,79,165862,79749
61755,-952,15612,4360,-81,-1097,119,165849,79723
61897,-912,15268,4648,414,747,-483,166103,79770
62037,-608,15400,4336,-451,1406,-9,166049,79733
62177,-764,15468,4064,-851,-501,402,165849,79842
62317,-748,15516,4264,-644,21,229,165919,79734
62457,-400,15284,4416,28,296,-252,165782,79764
62599,-232,15300,4488,-205,-1036,47,165987,79771
62739,-752,15304,4504,-96,-107,-106,165832,79694
62879,-332,15332,4716,-242,214,-249,165675,79849
63019,-408,15280,4472,-348,238,34,165754,79716
63159,-412,15240,4424,-30,445,89,165715,79764
63301,-524,15368,4512,-172,79,369,165925,79778
63441,-852,15332,4528,-172,146,-23,165746,79732
63581,-232,15324,4492,-219,23,-199,165747,79934
63721,-252,15236,4532,-225,101,-180,165803,79835
63861,-240,15252,4420,-230,256,57,165800,79852
64003,-256,15436,4624,-96,-60,32,165949,79814
64143,-160,15368,4596,-27,157,-51,165801,79834
64283,-116,15292,4560,-159,47,-41,165842,79954
64423,-168,15328,4628,-188,315,-97,165957,79900
64563,-52,15364,4528,-272,-216,89,165945,79949
64705,-208,15288,4276,75,100,-123,165935,79890
64845,-92,15436,4676,136,273,-169,165967,79872
64985,-320,15324,4640,-346,525,79,165943,80011
65125,-236,15324,4320,-379,577,32,166012,80020
65265,-400,15412,4324,-50,374,34,166002,79971
65405,-568,15328,4524,-153,250,-131,165937,79910
65547,-464,15416,4416,-361,-49,-346,166045,79986
65687,-224,15376,4456,-255,-546,-346,165972,79966
65827,-260,15176,4568,56,-222,-110,165986,80080
65967,-468,15316,4664,-245,-206,167,166051,79974
66107,-436,15336,4804,-272,-61,-103,165919,79997
66249,-124,15136,4456,-354,374,84,166058,79960
66389,-216,15432,4612,-96,420,150,165991,80003
66529,-368,15380,4848,-472,-87,194,166047,80124
66669,-312,15396,4828,-467,505,-76,166000,80071
66809,-376,15076,4836,-288,493,-191,165949,80049
66949,-188,15240,4716,72,782,-138,165981,80043
67091,-488,15252,4716,-228,442,326,166130,80049
67231,-520,15248,4580,-164,529,-192,166022,80094
67371,-548,15260,4656,-279,167,-180,165879,80130
67511,-568,15232,4820,-275,-166,-181,165903,80098
67651,-740,15128,4852,-105,249,-194,165876,80051
67793,-536,15128,4776,4,29,-288,166042,80090
67933,-492,15088,4736,191,-229,-159,165926,80024
68073,-392,15240,4800,37,-499,23,165810,80205
68213,-420,15396,4916,-208,-321,96,165935,80112
68353,-356,15108,4536,-531,-475,3,165931,80168
68495,-40,15340,4592,-33,120,-168,166025,80131
68635,-140,15288,4752,-196,9,51,165978,80105
68775,-276,15208,4560,-19,19,-103,165933,80225
68915,-156,15276,4676,137,157,-242,166009,80255
69055,-300,15208,4660,-150,-52,-54,166072,80233
69195,-232,15560,4520,-77,245,-49,166079,80203
69337,-412,15272,4564,-319,-69,67,166136,80217
69477,-328,15436,4468,-31,98,-160,166069,80162
69617,-264,15320,4396,-7,288,-232,166092,80342
69757,-316,15300,4384,138,47,-235,166179,80267
69897,-488,15252,4552,138,371,-300,166098,80282
70037,-524,15228,4544,-236,315,-160,166055,80259
70179,-268,15360,4360,-260,620,33,166239,80266
70319,-476,15424,4416,-306,602,333,166131,80322
70459,-664,15284,4600,-463,661,250,166219,80375
70599,-548,15384,4336,-489,503,-9,166166,80337
70739,-432,15408,4072,-170,214,24,166154,80316
70881,-600,15292,4540,-124,-131,-95,166367,80358
71021,-464,15284,4796,-346,-233,-256,166289,80316
71161,-272,15380,4620,-311,-187,-148,166352,80440
71301,-420,15280,4616,-177,117,109,166250,80373
71441,-732,15328,4588,-203,-711,-140,166246,80417
71583,-416,15392,4796,-61,145,-132,166418,80401
71723,-392,15336,4596,-431,239,-21,166534,80391
71863,-432,15328,4496,-114,208,-174,166310,80461
72003,-300,15212,4588,128,94,-384,166294,80457
72143,-400,15284,4696,-174,-104,-140,166254,80421
72283,-376,15276,4612,-182,324,-44,166303,80366
72425,-520,15148,4784,-152,-37,-84,166470,80440
72565,-312,15168,4592,-519,122,-172,166283,80338
72705,-384,15208,4348,57,343,56,166288,80561
72845,-236,15356,4672,333,119,111,166353,80468
72985,-428,15292,4744,-72,608,62,166410,80491
73127,-432,15588,4552,-588,75,152,166478,80471
73267,-424,15188,4156,10,-7,-390,166439,80440
73407,-324,15276,4540,203,-141,-133,166384,80551
73547,-300,15400,4620,54,-261,-176,166467,80569
73687,-252,15264,4692,-310,-168,-225,166460,80545
73827,-248,15264,4376,-371,273,-53,166429,80457
73969,-404,15252,4624,59,480,-127,166507,80529
74109,-300,15344,4668,-285,547,-45,166465,80483
74249,-596,15360,4460,-418,380,30,166430,80663
74389,-608,15328,4580,-467,208,-169,166544,80565
74529,-576,15228,4536,-194,21,-424,166362,80561
74671,-396,15296,4636,37,-156,-290,166400,80529
74811,-424,15168,4700,30,-103,-39,166488,80510
74951,-544,15368,4672,-277,-435,110,166431,80595
75091,-460,15188,4540,-35,86,32,166424,80625
75231,-424,15340,4624,128,78,3,166410,80582
75371,-516,15284,4468,-67,3,81,166391,80546
75513,-388,15324,4512,-183,19,-154,166632,80611
75653,-320,15432,4452,-457,-123,17,166578,80547
75793,-476,15260,4532,-190,84,-264,166455,80705
75933,-332,15276,4620,-217,-32,-222,166529,80641
76073,-264,15260,4756,-154,110,-144,166529,80659
76215,-388,15344,4604,-287,170,39,166635,80584
76355,-548,15380,4552,-125,204,-95,166599,80636
76495,-424,15240,4620,-163,56,-349,166506,80735
76635,-464,15376,4604,-322,-647,-282,166572,80707
76775,-364,15260,4608,-206,-461,-251,166574,80693
76915,-512,15228,4768,22,-365,-385,166587,80673
77057,-280,15168,4764,-9,-160,-387,166652,80673
77197,-48,15228,4672,-369,-216,100,166559,80735
77337,-280,15352,4644,-142,156,281,166590,80793
77477,-384,15296,4712,-19,281,124,166623,80742
77617,-248,15316,4740,-75,430,-47,166501,80658
77759,-304,15396,4760,-215,767,100,166661,80748
77899,-368,15352,4524,-250,608,90,166663,80754
78039,-524,15248,4388,-238,480,14,166624,80837
78179,-624,15428,4636,-57,181,-132,166688,80742
78319,-400,15196,4656,-234,-83,-403,166601,80756
78461,-312,15232,4696,-358,202,-70,166797,80792
78601,-580,15320,4772,-190,205,-118,166746,80753
78741,-512,15296,4836,-288,230,-168,166718,80908
78881,-460,15208,4768,-294,530,-116,166669,80790
79021,-492,15232,4672,-355,412,64,166636,80818
79163,-672,15188,4700,-182,312,52,166764,80783
79303,-556,15132,4608,-137,-38,-82,166748,80804
79443,-540,15184,4724,-46,-139,-97,166618,80858
79583,-568,15180,4776,-3,-166,10,166683,80846
79723,-428,15256,5004,-222,-186,52,166715,80876
79865,-344,15180,4780,-280,126,-79,166760,80838
80005,-412,15104,4648,-113,9,-39,166738,80801
80145,-212,15432,4892,-64,75,16,166681,80920
80285,-352,15328,4828,-439,-154,-119,166762,80932
80425,-208,15188,4712,-341,129,-113,166775,80883
80565,-216,15144,4696,-23,200,-30,166731,80874
80707,-432,15396,5088,-137,166,10,166833,80880
80847,-404,15152,4844,-636,47,-48,166763,80954
80987,-228,15176,4796,-290,412,-343,166791,80975
81127,-360,15372,4996,41,174,-116,166813,80960
81267,-544,15224,5040,21,95,-220,166723,80868
81409,-536,15188,4972,-34,247,-280,166873,80950
81549,-516,15224,4928,-82,435,-118,166870,80951
81689,-648,15104,4852,-143,340,6,166873,81043
81829,-664,15196,4904,-149,274,-105,166840,80932
81969,-564,15232,4932,-132,494,-98,166832,80965
82111,-552,15248,4900,-319,444,98,166961,80951
82251,-720,15088,4788,-461,305,185,166912,80950
82391,-708,15272,4740,-178,193,-81,166817,81073
82531,-484,15056,4764,-202,-142,-79,166879,81016
82671,-552,15132,4868,-148,-515,-23,166864,81027
82811,-640,15192,5028,-57,-427,-16,166954,81030
82953,-380,15060,5172,53,136,-64,167055,81011
83093,-568,15180,5180,-329,-622,-534,166910,81045
83233,-256,14980,4856,-674,-916,209,166961,81092
83373,-480,15140,4704,-53,-392,42,166975,81058
83513,-664,15376,5456,879,-121,-1092,167034,80985
83655,-156,15168,5056,-853,-1521,-288,167019,81039
83795,-20,15152,4712,99,185,-128,166977,81108
83935,-168,15424,5116,224,654,6,166991,81160
84075,-352,15332,5068,137,1328,26,167032,81102
84215,-716,14960,4624,-674,-531,857,166977,81018
84357,100,14920,4176,1482,-1014,-1354,167142,81112
84497,344,15196,4656,1060,607,305,167098,81145
84637,-12,15944,4920,-322,216,257,167035,81166
84777,224,15440,4192,-1679,547,894,166958,81117
84917,-216,15676,4072,-1225,922,417,166961,81088
85059,-632,14916,3952,-558,211,-193,167134,81124
85199,-488,15288,4320,1179,-140,-1555,167097,81143
85339,-536,15140,4780,993,334,-1003,166964,81200
85479,-348,15584,4836,134,165,-285,167043,81117
85619,-444,15424,4436,-970,466,583,166999,81165
85761,-580,15512,4120,-995,688,1061,167246,81189
85901,-848,15112,4240,-549,414,472,167093,81124
86041,-716,15248,4292,242,228,-685,167073,81347
86181,-312,15408,4504,465,41,-939,167156,81209
86321,-356,15636,4772,162,308,-263,167114,81222
86463,-1024,15384,4624,-1024,-13,-71,167274,81184
86603,-584,15080,4120,-924,-203,-116,167101,81172
86743,-612,15436,4544,-56,-415,-163,167149,81310
86883,-960,15084,4984,-5,-111,-675,167260,81256
87023,-516,15356,4868,-171,309,-660,167228,81258
87165,-892,15380,4600,-668,-294,-12,167201,81184
87305,-1084,15284,4516,-1015,-1485,110,167156,81211
87445,-1044,14708,4660,-7,-984,-624,167228,81350
87585,-988,15252,4944,1338,-801,-1927,167295,81306
87725,-728,15508,5120,109,-1532,-788,167156,81266
87867,-992,15024,4932,-1268,-2574,-41,167191,81234
88007,-672,14880,4908,-353,-1421,-291,167182,81244
88147,-304,15084,4984,392,-754,126,167286,81374
88287,-624,14900,5172,191,379,166,167356,81326
88427,-208,15664,5260,825,-202,-725,167152,81317
88569,28,15172,5052,-1063,-2751,456,167185,81228
88709,-20,15232,4928,-818,937,798,167282,81300
88849,-180,15400,4924,-170,1612,160,167219,81394
88989,-180,15384,4452,-584,594,230,167188,81350
89129,-184,15132,4288,-33,318,343,167195,81337
89269,-244,15180,4880,986,449,150,167188,81319
89411,-200,15516,5360,608,1055,-164,167379,81333
89551,-556,15256,5448,-466,1786,-692,167312,81406
89691,-124,15204,4928,-1445,503,-273,167230,81414
89831,-60,15152,4652,-625,1057,253,167290,81391
89971,-652,15008,5072,5,954,529,167295,81309
90113,-780,15136,5104,-168,769,566,167465,81405
90253,-908,15196,5032,-429,221,-1,167259,81385
90393,-732,15116,5036,25,624,-637,167195,81429
90533,-748,15400,5012,51,858,-29,167225,81384
90673,-820,14652,4700,431,1122,258,167248,81362
90815,-1024,15320,4836,597,1064,-166,167271,81374
90955,-496,15492,4544,-304,-70,263,167152,81316
91095,-664,15112,4576,257,271,241,167141,81486
91235,-856,15596,4640,43,166,148,167297,81378
91375,-868,15256,4312,-380,-528,-137,167226,81402
91517,-636,15224,4412,116,346,-332,167398,81387
91657,-616,15552,4616,200,220,-373,167418,81437
91797,-752,15460,4584,-346,-312,-120,167418,81514
91937,-632,15072,4464,-599,-347,95,167384,81489
92077,-572,15396,4188,-137,404,306,167364,81475
92217,-796,15516,4556,85,398,-159,167427,81468
92359,-724,15344,4428,-266,176,-72,167607,81463
92499,-816,15360,4480,-388,45,-122,167420,81512
92639,-736,15360,4724,-165,250,-255,167382,81547
92779,-712,15236,4620,-486,62,-89,167461,81524
92919,-768,15220,4476,-350,-283,-43,167453,81490
93061,-320,15076,4544,66,134,229,167544,81528
93201,-648,15364,4556,775,661,-259,167442,81459
93341,-512,15472,4368,407,65,286,167403,81605
93481,-904,15432,4468,-191,498,216,167548,81504
93621,-704,15420,4064,-407,687,-13,167404,81525
93763,-592,15528,4148,-578,-3,82,167559,81547
93903,-836,15316,4228,-309,-551,-88,167506,81500
94043,-628,15224,4360,-121,-405,-247,167572,81681
94183,-352,15412,4596,31,-162,-262,167538,81579
94323,-484,15068,4536,50,1419,-264,167482,81586
94465,-720,15444,4252,-175,732,369,167564,81516
94605,-664,15352,4100,-180,106,387,167696,81577
94745,-820,15448,4208,-91,384,-24,167646,81683
94885,-728,15496,4228,-229,-33,-348,167582,81670
95025,-804,15432,4356,-162,-187,-360,167621,81650
95165,-832,15412,4392,-112,251,-437,167621,81580
95307,-580,15360,4548,-228,753,-347,167790,81666
95447,-548,15208,4188,-750,564,295,167604,81617
95587,-932,15420,4280,-687,63,692,167566,81739
95727,-1016,15248,4600,-189,-495,-125,167661,81638
95867,-920,15088,4616,183,-145,-635,167652,81678
96009,-636,15528,4800,37,-470,-464,167635,81593
96149,-576,15140,4760,-507,-372,156,167694,81666
96289,-540,15304,4544,-533,-183,357,167676,81771
96429,-504,15280,4408,25,-147,208,167780,81765
96569,-620,15456,4864,542,594,-331,167697,81710
96709,-512,15544,4752,-306,634,2,167702,81703
96851,-512,15348,4424,-1040,195,193,167884,81725
96991,-732,15112,4308,91,-634,-266,167838,81763
97131,-656,15228,4500,523,-516,-405,167758,81786
97271,-436,15508,4616,308,-1062,-406,167782,81734
97411,-308,15348,4652,58,-598,-344,167728,81769
97553,-600,15484,4516,-387,-93,-230,167961,81780
97693,-588,15452,4384,-499,153,-321,167871,81724
97833,-536,15320,4432,-304,655,-244,167814,81856
97973,-760,15416,4632,-571,100,138,167849,81801
98113,-732,15196,4700,-425,516,-88,167878,81817
98255,-576,15276,4444,-142,1043,-147,167870,81769
98395,-772,15288,4372,117,437,-47,167846,81740
98535,-872,15328,4708,132,176,11,167769,81836
98675,-1088,15300,4628,-547,-1179,-57,167818,81864
98815,-720,15264,4612,-234,-65,-71,167816,81823
98955,-820,15200,4756,-486,-144,-48,167697,81728
99097,-1240,15332,4728,-1675,-576,21,167779,81801
99237,12,17228,5476,979,508,-1271,167825,81770
99377,-652,14736,4728,-810,-3364,-1042,167779,81895
99517,28,15176,4920,546,-1445,-550,167768,81765
99657,-572,15200,5084,624,-887,-137,167839,81858
99799,-212,15228,4928,1172,-484,-599,168112,81866
99939,-320,15416,4932,-58,-196,188,168079,81862
100079,-656,15532,4940,-477,375,-82,167902,81925
100219,-592,15436,4680,-1037,810,-37,167963,81936
100359,-580,15176,4748,-1404,956,118,167920,81915
100499,-524,15048,4572,-642,297,215,168010,81921
100641,-404,15148,5220,598,1027,-415,168103,81880
100781,-648,15412,5376,-727,187,-197,167885,81940
100921,-1612,14752,5012,-1317,3867,688,167885,81972
101061,-780,15124,5132,-483,-393,-730,167901,81955
101201,-840,14872,5320,-388,-673,-343,167829,81887
101343,-808,14912,5416,-155,152,107,167898,81925
101483,-1080,14876,5556,-350,86,312,167780,81826
101623,-1204,15004,5364,-269,-192,-215,167868,82038
101763,-864,14796,5360,37,-123,-314,167769,81919
101903,-764,14956,5568,45,327,-107,167792,81943
102045,-1132,14888,5604,-64,280,-139,167829,81917
102185,-1132,14860,5308,-194,-71,-204,167948,81908
102325,-1128,14936,5344,-39,381,-68,167883,81998
102465,-1072,14900,5540,-179,325,25,167845,82018
102605,-1132,14952,5336,-309,-3,-15,167842,81982
102745,-1028,14944,5464,-372,-81,-90,167949,81892
102887,-1056,14860,5396,-6,86,-192,168016,81971
103027,-968,15032,5548,-142,-85,27,167884,82011
103167,-948,14924,5404,-225,-149,-74,167923,82076
103307,-944,14892,5504,-41,-32,-88,167985,82004
103447,-952,14908,5608,-52,109,-89,167986,82021
103589,-1000,14908,5592,-253,238,37,168037,81960
103729,-1020,14828,5352,-178,385,-64,168019,82020
103869,-968,15068,5324,-169,186,93,168049,82106
104009,-1088,15064,5312,-189,-243,-12,168125,82081
104149,-960,14888,5348,171,-427,-325,168013,82066
104289,-884,14988,5476,29,-402,-216,168017,82049
104431,-740,15056,5420,-95,-128,72,168201,82041
104571,-856,15108,5336,-32,208,-54,168149,82100
104711,-796,15036,5320,-343,213,-45,168038,82115
104851,-900,14992,5280,-241,143,-18,168076,82084
104991,-864,15024,5340,-213,363,-94,168120,82074
105133,-824,14932,5228,-85,249,-209,168302,82075
105273,-812,14688,5296,-147,278,-44,168081,82031
105413,-372,15208,5492,-35,190,62,168045,82200
105553,-740,15080,5156,-485,199,498,168104,82094
105693,-1208,14888,5516,-417,-549,-128,168153,82123
105835,-736,15008,5412,-317,-82,-654,168086,81994
105975,-616,14832,5320,150,259,-242,168181,82077
106115,-836,14936,5632,176,298,-57,168097,82185
106255,-908,14936,5576,-261,432,95,168166,82170
106395,-908,14980,5336,-280,566,24,168035,82104
106535,-980,14996,5372,-243,773,178,168038,82106
106677,-1132,15112,5400,-310,817,108,168186,82135
106817,-1160,14976,5208,-378,795,-93,168185,82178
106957,-1088,14932,5084,-196,602,-360,168058,82190
107097,-1128,15080,5252,-175,81,-321,168140,82156
107237,-1248,14844,5344,-100,-60,-296,168144,82176
107379,-1120,14912,5540,195,36,-294,168361,82169
107519,-1200,14900,5616,-53,329,134,168120,82107
107659,-1284,14984,5276,-569,726,409,168153,82272
107799,-1392,14936,5084,-370,700,304,168249,82254
107939,-1428,14956,5256,56,402,15,168322,82227
108079,-1424,15020,5572,2,381,-69,168249,82208
108221,-1264,14816,5272,-286,442,-71,168363,82216
108361,-1272,14920,5088,-284,459,214,168290,82278
108501,-1440,15004,5300,-248,371,375,168337,82309
108641,-1624,14808,5400,-335,208,-296,168322,82286
108781,-1204,15080,5312,-31,406,-340,168302,82209
108923,-1276,14936,5388,-385,257,26,168454,82266
109063,-1388,14924,5364,-281,317,97,168449,82251
109203,-1528,15004,5320,-107,317,-32,168452,82425
109343,-1812,14892,5348,-146,-425,-269,168424,82267
109483,796,15096,5512,-450,-11644,-1929,168215,82219
109625,-668,14556,5496,-852,1123,119,168462,82177
109765,-1152,14636,5516,-204,2887,782,168830,82363
109905,-1372,14624,5856,392,2236,-47,168965,82491
110045,-1216,14836,5812,268,1073,-517,169115,82489
110185,-1256,14772,5712,-29,199,-69,169196,82477
110325,-1364,14708,5580,-190,237,295,169229,82476
110467,-1704,14912,5544,-162,372,134,169211,82478
110607,-1284,14912,5344,29,-32,-224,169069,82490
110747,-1664,14908,5408,269,1651,45,169229,82579
110887,-1456,15160,5732,-210,-368,-65,169383,82557
111027,-1684,14844,5400,-365,-539,-311,169332,82547
111169,-1404,14796,5360,123,122,-441,169424,82559
111309,-1284,14740,5280,247,355,295,169345,82502
111449,-1672,14904,5552,-47,392,673,169415,82658
111589,-1432,15012,5268,-83,1191,264,169429,82597
111729,-1448,15236,5196,-512,1190,588,169275,82553
111869,-1396,15092,4812,-460,345,362,169295,82548
112011,-1576,15156,5180,199,131,-104,169447,82583
112151,-1264,14840,5424,-145,-305,-377,169412,82620
112291,-1368,15108,5228,-302,66,-384,169260,82646
112431,-1504,14664,5188,-135,109,-156,169302,82560
112571,-1248,15076,5564,14,296,-38,169272,82576
112713,-1352,14908,5292,-159,294,213,169422,82542
112853,-1292,15004,5012,-91,408,14,169331,82606
112993,-1308,15120,5188,-88,167,41,169183,82682
113133,-1444,14972,4948,-171,-73,-123,169216,82648
113273,-1220,14964,4972,78,173,-236,169236,82600
113413,-1280,15072,5128,39,296,-49,169275,82537
113555,-1380,15088,5028,-331,-22,107,169263,82561
113695,-1356,15216,4888,-168,43,-51,169118,82530
113835,-1348,15108,4636,64,338,-197,169185,82701
113975,-1408,15220,5032,172,31,-125,169209,82602
114115,-1408,15080,5136,-189,-360,-231,169205,82617
114257,-1228,15212,5020,-382,-468,-216,169101,82591
114397,-1148,15068,4704,-268,-90,-21,169197,82591
114537,-1260,15036,4724,71,-189,-17,169161,82632
114677,-1316,15284,5320,18,73,-178,169142,82657
114817,-1520,15096,5220,-445,-30,-258,169078,82624
114957,-1328,15124,4860,-598,314,-2,169071,82596
115099,-1288,15068,4780,-297,406,53,169227,82605
115239,-1452,15000,4884,6,210,15,169167,82569
115379,-1388,15028,5120,-24,-180,-196,169059,82670
115519,-1188,14932,4920,11,104,-17,169109,82629
115659,-1212,15288,5164,43,198,111,169089,82643
115799,-1364,15232,4952,-364,-294,240,169105,82611
115941,-1412,15112,4944,136,546,-255,169126,82566
116081,-1344,15072,4832,-185,-87,-146,169052,82650
116221,-1352,15112,4868,43,111,-217,169019,82668
116361,-1452,15300,4792,-94,-33,-118,169138,82627
116501,-1372,15048,4852,-156,104,-103,168949,82616
116643,-1492,15112,4772,-208,-12,-29,169163,82619
116783,-1368,15136,4812,-250,118,131,169070,82625
116923,-1400,15136,4804,-248,25,-35,169095,82730
117063,-1332,15092,4896,-266,-218,-118,169025,82709
117203,-1132,15204,4952,-306,-329,41,168992,82657
117343,-1128,15040,4976,-127,-91,-62,169023,82634
117485,-1140,15220,4956,-49,-16,-152,169124,82672
117625,-1184,15092,4888,-176,-182,-85,168976,82674
117765,-1124,15176,4952,-31,319,-26,168993,82752
117905,-1108,15100,4964,-222,517,101,169089,82670
118045,-1172,15160,4844,-332,206,138,168942,82671
118187,-1212,15208,4836,-438,-239,-88,169076,82646
118327,-1032,15040,5032,-206,-338,-395,169085,82721
118467,-964,15068,5364,-232,-72,-163,169097,82823
118607,-1172,14960,5360,-441,107,-16,169009,82765
118747,-1116,14864,5152,-362,172,-109,169034,82739
118887,-880,15112,5196,-144,207,19,169066,82710
119029,-1224,14988,5472,-149,245,-48,169185,82741
119169,-940,15044,5240,-419,-108,-124,169029,82773
119309,-1116,14924,5136,-39,306,53,169063,82816
119449,-1012,15056,5136,298,379,-290,169149,82767
119589,-1016,15148,5184,-49,303,72,169044,82766
119731,-1280,15012,5212,-290,546,-38,169195,82782
119871,-1140,15168,4816,-231,292,-160,169112,82746
120011,-1428,15128,4936,170,138,-267,169200,82894
120151,-1404,15056,5172,200,274,-552,169175,82835
120291,-1288,15260,4908,-236,165,-370,169141,82848
120433,-1700,15028,4720,-615,-210,100,169159,82827
120573,-1868,14908,5120,36,358,-324,169343,82844
120713,-1484,14948,5164,-50,545,-638,169287,82914
120853,-1360,15060,4836,-521,375,317,169216,82927
120993,-1752,15004,4868,-318,94,432,169248,82904
121133,-1844,14984,5132,-18,63,-108,169279,82850
121275,-1468,15140,5004,35,122,-240,169434,82924
121415,-1488,15112,5012,-81,52,-7,169344,82811
121555,-1544,15096,5044,-223,41,93,169230,82985
121695,-1532,15112,4888,-175,56,31,169281,82923
121835,-1224,15040,4920,-32,-31,12,169341,82948
121977,-1280,15016,5080,-4,-111,190,169441,82842
122117,-1212,15348,5004,-34,30,30,169480,82917
122257,-1216,15176,4936,-252,-239,-155,169277,82995
122397,-1140,15116,5084,-110,253,-273,169341,82977
122537,-1192,15184,5048,-325,252,-101,169379,82953
122677,-1348,14980,5028,-434,364,-127,169430,82954
122819,-1324,15092,4952,-507,422,-26,169632,82977
122959,-1396,14972,5096,-293,405,-74,169418,82964
123099,-1608,15116,5020,-307,438,-5,169427,83023
123239,-1388,14988,5108,-394,82,-231,169467,83025
123379,-1392,14844,5076,-120,-106,-31,169494,82990
123521,-1452,15056,5104,35,-200,46,169712,83008
123661,-1336,15048,5336,-230,-239,-38,169492,82949
123801,-1164,15012,5096,-158,54,-29,169474,83114
123941,-1168,14992,4916,122,324,79,169565,82996
124081,-1352,15112,5104,-45,92,-13,169564,83014
124223,-1400,15124,4964,-110,-119,-322,169757,83020
124363,-1148,14908,4856,106,-125,-380,169540,82964
124503,-1100,15080,5208,111,93,13,169522,83131
124643,-1092,15140,5184,-263,437,442,169571,83023
124783,-1392,15072,4904,-552,494,437,169567,83044
124925,-1360,15276,4928,-416,302,-46,169717,83003
125065,-1280,15108,4912,-37,336,-421,169493,82986
125205,-1348,15048,4968,26,244,-370,169552,83132
125345,-1320,15092,5124,-159,-69,-273,169575,83063
125485,-1304,15116,4996,-234,67,-204,169618,83064
125627,-1392,15092,4920,-302,203,-88,169668,82997
125767,-1476,15056,4916,-287,121,-72,169548,83057
125907,-1416,15080,4980,-196,22,-86,169569,83147
126047,-1368,14968,5164,-152,-163,20,169627,83088
126187,-1352,15124,5076,-129,-142,-36,169670,83103
126329,-1380,15088,5072,-80,-386,-229,169569,82988
126469,-1236,15076,5000,-37,-305,-237,169626,83082
126609,-1108,15092,5088,79,-149,-112,169598,83142
126749,-1204,15148,5256,-69,-44,51,169660,83122
126889,-1304,15184,4940,-299,186,53,169706,83128
127031,-1296,15032,4996,-270,391,72,169584,83065
127171,-1260,15160,4936,-189,174,94,169684,83068
127311,-1268,15088,4896,33,332,-90,169619,83155
127451,-1240,15052,4796,5,355,-170,169670,83154
127591,-1304,15168,4832,99,403,-96,169657,83100
127731,-1404,15124,5072,-338,-92,-120,169577,83103
127873,-1300,15064,5028,-598,-16,-200,169711,83076
128013,-1324,15156,4832,-125,231,-181,169662,83185
128153,-1492,15144,4916,-130,95,-183,169709,83181
128293,-1408,15084,4972,-286,256,-227,169563,83116
128433,-1388,14968,4972,-231,378,6,169555,83089
128575,-1464,15088,5044,-147,306,56,169731,83093
128715,-1552,14964,4848,-198,202,90,169667,83186
128855,-1584,15072,4836,117,-174,-139,169617,83180
128995,-1252,15192,4928,280,152,-201,169592,83129
129135,-1624,15176,4968,-230,-28,-146,169592,83125
129277,-1580,15140,4688,-283,-325,-247,169770,83124
129417,-1584,15048,4768,-57,95,-165,169620,83194
129557,-1684,15128,4912,-91,184,-207,169576,83191
129697,-1396,15188,4812,-368,22,-31,169587,83119
129837,-1468,15128,4736,-264,115,68,169609,83133
129979,-1676,15160,4892,-174,222,34,169795,83135
130119,-1568,15136,4864,-410,40,-120,169542,83180
130259,-1396,15128,5016,-357,-10,-55,169603,83224
130399,-1532,15080,4992,-186,85,-88,169622,83165
130539,-1496,15236,5044,-196,138,-28,169674,83140
130681,-1472,15104,5192,-220,130,-23,169672,83165
130821,-1536,15128,5024,-174,227,27,169609,83205
130961,-1596,14904,5080,-260,405,28,169616,83239
131101,-1268,14844,4624,185,395,-122,169647,83199
131241,-1744,15372,4880,282,-677,293,169503,83089
131383,-1856,15228,5176,-136,-112,-255,169621,83167
131523,-1260,15200,4848,-278,-122,-316,169601,83211
131663,-1468,15168,4980,-247,34,-120,169580,83255
131803,-1236,14948,4772,-362,-341,377,169480,83193
131943,-1404,15164,4908,-57,-257,76,169471,83127
132085,-1048,15216,4736,116,-3,-124,169635,83194
132225,-1316,15152,5040,-306,201,-321,169607,83246
132365,-1188,15108,4808,-435,-242,-53,169638,83266
132505,-1384,15156,4928,-257,-78,0,169501,83233
132645,-1220,14976,4964,-238,-197,-149,169558,83172
132787,-1272,15064,5108,-163,6,-59,169713,83241
132927,-1192,15100,5224,-322,57,33,169719,83270
133067,-1104,14988,4968,-268,-312,15,169614,83301
133207,-1188,15092,4856,103,-260,-132,169597,83258
133347,-1152,15240,5020,326,-148,-306,169654,83199
133489,-1336,15028,5308,-93,86,-140,169819,83271
133629,-1164,15192,4872,-246,94,-223,169788,83284
133769,-1192,15084,4760,-141,133,301,169671,83308
133909,-1348,15304,4988,-116,296,215,169751,83304
134049,-1292,15176,4808,-100,518,-341,169745,83273
134191,-1032,15184,4668,-408,-14,27,169924,83310
134331,-1224,15200,4680,-49,71,115,169808,83220
134471,-1284,15256,4932,-162,-223,-30,169778,83413
134611,-1168,15136,4720,-322,94,-143,169878,83301
134751,-1180,15240,4572,67,299,-12,169886,83338
134893,-1156,15436,5004,106,115,-47,170028,83283
135033,-1184,15084,4700,-608,-262,51,169885,83314
135173,-1212,15292,4700,135,124,-270,169904,83411
135313,-1088,15280,4744,-163,-355,-250,169991,83366
135453,-1172,15172,4928,-337,-571,-281,169996,83380
135595,-1132,15040,4812,-394,-688,-444,169885,83331
135735,-1280,15120,4872,198,17,-373,169997,83327
135875,-1228,15140,4892,259,-184,-614,169979,83391
136015,-1252,15136,4864,23,-367,-273,169999,83427
136155,-1324,15164,4884,-297,-330,-98,169998,83324
136295,-1156,15020,4672,-194,-344,-139,169879,83349
136437,-1204,15156,4816,-155,-280,-147,170044,83337
136577,-1192,14928,5012,-512,-840,0,170010,83346
136717,-872,15056,5548,197,1100,-209,169973,83408
136857,-1316,15268,5364,-531,2041,604,169877,83377
136997,-1320,15056,4684,-1400,896,961,169879,83383
137137,-1708,15356,4876,-962,515,-56,169853,83354
137279,-980,14252,4408,542,764,-430,170011,83359
137419,-1268,15548,5028,1990,434,-569,169787,83363
137559,-1464,14844,4820,-617,-1655,565,169706,83402
137699,-820,15364,4548,641,489,92,169834,83343
137839,-1296,15764,4724,-923,-1228,428,169760,83359
137981,-800,15080,4632,215,-861,-1185,169731,83322
138121,-412,15604,4832,-273,441,-96,169592,83356
138261,-1036,15272,4788,-224,1224,329,169672,83446
138401,-1008,15100,4724,159,150,-580,169763,83431
138541,-1088,15128,4996,-298,242,-563,169659,83372
138681,-1100,15004,4940,-87,1667,-95,169642,83325
138823,-1340,16208,4924,-568,390,314,169746,83395
138963,-2204,15124,4504,-1134,3267,780,169744,83416
139103,-1224,15368,4112,-1505,-1882,651,169561,83432
139243,-1164,15324,4660,1276,2198,-464,169682,83387
139383,-1888,15440,5124,-955,-883,177,169653,83400
139525,-416,14468,4692,960,-2196,-1753,169888,83420
139665,-536,15828,5880,-901,-2257,-567,169731,83339
139805,-544,14300,5408,-853,-1660,77,169795,83552
139945,-1116,14628,5824,1071,830,-1515,170015,83519
140085,-1640,15504,5308,-1074,-2243,-865,170024,83531
140227,-652,14848,4180,-259,-1744,463,170160,83479
140367,-1192,15336,5348,1495,-937,-245,170027,83508
140507,-1428,15456,5188,1083,-40,-246,169979,83569
140647,-892,14556,4604,842,746,67,170055,83555
140787,-472,15680,4760,-410,-4102,-671,170083,83544
140929,-460,15536,4328,-1608,-1121,458,169951,83490
141069,-408,15248,4408,143,664,134,170111,83504
141209,-516,15060,4540,71,743,464,170070,83548
141349,-224,15376,4640,494,1563,613,170146,83599
141489,-804,15628,4928,-1109,2266,-473,170115,83535
141629,-192,16160,4520,-1628,-308,-1198,170063,83437
141771,-1756,14660,4752,-1332,-2576,-396,170194,83522
141911,-420,14952,5776,-779,-10,-1125,170229,83572
142051,-416,14840,5996,-1388,-2593,-2419,170077,83583
142191,916,14004,6052,-278,-4134,-494,170086,83502
142331,-500,14880,6152,802,-29,1172,170131,83549
142473,-1508,15056,6408,128,-438,166,170393,83583
142613,-160,14712,5920,103,-1330,-380,170254,83493
142753,-716,14740,6192,-361,-152,38,170198,83700
142893,116,14632,5188,968,337,-693,170160,83563
143033,-204,15072,5776,457,-497,255,170089,83562
143175,32,15040,5488,-238,861,225,170071,83451
143315,-488,15016,5420,-408,1024,274,169967,83549
143455,-296,14896,5304,-392,-172,-106,169920,83606
143595,-124,14844,5388,-167,-88,98,169996,83586
143735,-212,14848,5560,-170,-574,-60,169936,83541
143875,204,14712,5780,-107,-256,-223,169830,83509
144017,56,14840,5736,-292,410,142,170009,83520
144157,-40,14792,5600,-150,489,-97,169924,83586
144297,4,14852,5616,-141,-11,-159,169828,83589
144437,92,14880,5612,-266,-80,130,169784,83553
144577,-8,14896,5588,-185,-124,-44,169795,83500
144719,92,15056,5688,-178,356,35,169973,83562
144859,-80,14932,5640,-194,125,-97,169792,83505
144999,284,14948,5716,-40,165,-123,169644,83632
145139,-60,14852,5684,-237,431,-18,169726,83528
145279,-96,14824,5580,-155,-120,-133,169716,83559
145421,168,14844,5620,-151,-8,-95,169777,83491
145561,-16,14948,5652,-91,984,-104,169644,83505
145701,-168,14892,5556,110,454,-204,169654,83582
145841,-120,14860,5852,-60,294,-118,169761,83577
145981,-168,14860,5568,-303,221,50,169783,83593
146123,-88,14900,5528,-111,-3,-103,169615,83525
146263,-120,14884,5440,-53,-44,56,169766,83528
146403,-44,14972,5644,-202,-2,-95,169728,83623
146543,-120,15016,5480,-120,235,-114,169799,83650
146683,-24,14904,5508,-141,93,-13,169651,83586
146823,-232,15060,5584,-38,111,-114,169737,83532
146965,-96,14864,5556,-294,313,-138,169929,83617
147105,-216,14956,5516,-328,263,68,169895,83622
147245,-476,14880,5492,-152,474,-164,169747,83713
147385,-196,14892,5632,-243,-74,-2,169838,83613
147525,-108,14948,5588,-231,132,-98,169868,83635
147667,-152,14892,5472,-214,-64,-20,169947,83581
147807,-60,14956,5652,-166,104,-98,169799,83594
147947,-176,14932,5716,-283,67,-35,169819,83688
148087,-264,14816,5572,-432,-480,31,169841,83656
148227,64,14880,5744,-143,-429,-44,169907,83680
148367,96,14920,5860,-304,61,-144,169774,83614
148509,20,14944,5768,-256,-15,-63,169962,83632
148649,120,14796,5612,-37,-28,-115,169887,83708
148789,-8,14944,5700,45,-38,-163,169976,83737
148929,116,14872,5688,-92,-107,-174,169892,83676
149069,136,14928,5716,-182,102,-130,169883,83610
149211,-48,14976,5584,-122,268,-147,170040,83684
149351,-220,14952,5624,-171,139,-196,169973,83675
149491,-48,15028,5508,-219,245,-131,169796,83788
149631,-208,14904,5640,9,47,-192,169815,83662
149771,-52,14960,5716,-323,12,17,169849,83704
149913,-92,15020,5532,-66,308,64,169884,83621
150053,-24,14848,5656,-314,-371,-82,169834,83697
150193,-24,14912,5784,-209,274,0,169824,83772
150333,-4,14840,5448,-279,-79,-22,169897,83779
150473,-40,14904,5696,-36,-29,-134,169877,83745
150613,0,14816,5576,-123,16,31,169815,83700
150755,136,14884,5508,-220,391,-101,170013,83716
150895,-80,14920,5676,-111,450,-131,169926,83782
151035,-20,14940,5564,-118,425,-105,169812,83800
151175,-128,14992,5584,-147,238,-63,169768,83735
151315,-40,14956,5752,-143,50,-173,169762,83668
151457,-116,14876,5580,-208,-196,-5,169945,83729
151597,0,14984,5620,-197,-39,-88,169768,83673
151737,-260,14868,5476,-141,248,-85,169760,83874
151877,-104,14924,5596,-146,1,-106,169866,83745
152017,-116,14836,5588,-123,74,-69,169903,83800
152159,-116,14936,5620,-192,-66,-45,169910,83709
152299,-132,14940,5624,-153,153,-99,169920,83783
152439,-180,14860,5628,-173,76,-137,169926,83869
152579,-104,14868,5620,-94,322,-106,170032,83851
152719,-84,14928,5640,-159,-9,-19,169958,83847
152859,-100,14928,5624,-158,112,18,169967,83825
153001,-388,15032,5984,-172,-192,-69,170242,83840
153141,-8,14912,5436,14,393,-135,170233,83975
153281,-280,14976,5676,-150,462,-157,170228,83958
153421,-108,15004,5628,-225,-51,-62,170096,83890
153561,20,14916,5640,-518,104,-24,169576,83632
153703,-52,14932,5676,-78,-579,-253,169429,83637
153843,-376,14884,5704,-186,318,17,168736,83444
153983,-476,14908,5472,-88,141,-186,168305,83423
154123,-264,14872,5392,93,-188,-417,168001,83233
154263,-492,15516,8140,152,435,911,168628,83696
154405,8,14804,5480,-142,167,-14,169830,83799
154545,-176,14984,6092,-338,401,-53,169751,83804
154685,24,14864,5308,-730,2586,465,169772,83889
154825,688,15028,5692,105,1290,413,169771,83869
154965,-8,14944,5008,392,-1666,-857,169774,83818
155105,-144,14976,5832,-395,-7,299,169822,83843
155247,-184,14944,5416,71,-558,-309,170051,83827
155387,148,14964,5704,-95,-157,-80,169805,83870
155527,-168,14892,5504,-338,317,-63,169820,83934
155667,0,14956,5556,-150,-154,-188,169894,83864
155807,-44,14940,5472,-263,158,82,169879,83891
155949,0,14944,5480,-190,-93,-146,169981,83854
156089,60,15012,5708,-101,290,-184,169811,83843
156229,12,14888,5484,-165,340,-130,169855,83947
156369,-72,14808,5536,-72,-8,-79,169862,83923
156509,60,15032,5676,-139,64,13,169902,83893
156649,-32,14916,5388,-210,376,-22,169687,83829
156791,-404,14888,5460,-30,-178,-146,169827,83867
156931,156,14924,5556,-71,-323,-262,169770,83886
157071,40,14984,5568,-370,489,65,169738,83951
157211,-256,15000,5412,-186,-263,-89,169736,83837
157351,-24,14996,5556,-203,-171,-81,169707,83876
157493,0,14900,5620,-250,63,-77,169855,83865
157633,96,14872,5488,-125,91,-76,169868,83894
157773,-36,14900,5560,-174,178,-19,169835,83968
157913,92,14956,5544,-175,57,-99,169761,83948
158053,76,14896,5696,-97,74,-150,169808,83929
158193,8,14920,5596,-208,118,-41,169813,83905
158335,-12,14904,5664,-87,191,-141,169989,83940
158475,96,15000,5544,-128,222,1,169807,83955
158615,-20,14920,5488,-197,489,-62,169765,83983
158755,-68,14984,5532,-77,-11,-173,169838,83934
158895,-28,14900,5568,-242,161,55,169815,83935
159037,-108,14948,5532,-128,361,-65,169795,83911
159177,24,14968,5556,-259,260,-9,169711,83888
159317,-196,14924,5496,-293,302,-22,169738,84002
159457,-84,14944,5520,-171,-429,-131,169771,83947
159597,164,14960,5740,-242,-167,-40,169677,83928
159739,-16,14996,5616,-281,250,-21,169752,83864
159879,32,14844,5576,-230,-43,-113,169851,83934
160019,-52,14856,5556,-91,147,-121,169832,83997
160159,128,14952,5752,-144,-101,-155,169749,83989
160299,104,14892,5732,-237,187,8,169814,83946
160439,60,14924,5572,-139,-6,-111,169826,83924
160581,100,14908,5592,-188,20,-70,169988,83956
160721,28,14888,5644,-55,-122,-85,169833,83987
160861,116,14960,5708,-155,16,-24,169825,84047
161001,128,15000,5620,-234,125,-135,169910,83979
161141,132,14896,5604,-152,51,14,169941,84003
161283,-4,14728,5484,-189,281,-38,170038,83958
161423,16,14936,5616,-189,106,8,169821,83920
161563,168,14892,5472,-58,-54,-157,169880,84042
161703,140,14936,5616,-68,267,-99,169869,84020
161843,-64,14916,5468,-119,221,-145,169857,84002
161985,56,14904,5536,-200,-79,-41,169747,83936
162125,56,14916,5608,-252,-215,-85,169905,83940
162265,16,14888,5492,-241,-69,-21,169921,84046
162405,128,14912,5704,-131,109,-100,169992,84071
162545,136,14936,5692,-188,-16,-27,169863,84026
162685,132,14880,5680,-272,-42,-42,169923,84002
162827,124,14944,5616,-256,31,-38,170135,84048
162967,320,14984,5512,-36,-10,19,170084,84012
163107,-400,14976,5132,955,-453,951,169954,84085
163247,-8,14464,6020,8,3412,-1243,170052,84072
163387,1024,15448,4724,-846,-2093,23,169895,84011
163527,504,15572,5044,-620,163,1236,169938,83986
163669,172,14972,5548,-783,-1282,968,169938,83941
163809,652,14296,5480,-304,1665,399,169822,84025
163949,1656,14812,5800,44,-1970,197,169901,84063
164089,1280,14968,5896,227,-1017,681,169954,84045
164229,1240,14992,5696,423,690,309,170024,84004
164371,1984,15068,5824,-509,327,-221,170022,84013
164511,1464,14828,5180,-277,805,79,169955,83990
164651,1268,14928,5632,-110,158,-77,169984,84164
164791,1264,14824,5616,-377,93,-53,170065,84060
164931,1132,14844,5616,-116,222,-94,169939,84021
165073,1420,14984,5708,-55,-183,-160,170021,83951
165213,1408,14844,5656,-238,715,-171,170040,84054
165353,992,14892,5456,-34,497,-238,170063,84145
165493,876,14904,5600,-489,-383,-340,170047,84091
165633,1144,14784,5436,15,-127,-262,169932,84030
165773,1460,14936,5472,84,-211,143,170010,84009
165915,1240,14964,5436,95,115,29,170181,84067
166055,1164,15036,5428,-138,19,-8,170130,84096
166195,1396,14948,5392,-209,-569,-235,169971,84098
166335,1424,14944,5280,-197,-389,-13,170030,84026
166475,1352,14880,5132,126,-1124,-127,170008,84060
166617,1892,15028,5620,350,-385,-395,170158,84004
166757,1544,15260,5300,-376,888,13,170125,84070
166897,1176,14500,4608,-113,-838,-466,170003,84165
167037,2248,15336,6036,1134,912,-644,170071,84154
167177,1392,15144,5476,-237,5643,566,170090,84122
167317,704,15192,4160,-205,4423,998,170147,84083
167459,48,15552,4436,784,2766,521,170169,84080
167599,-4,15360,4580,1046,2627,-744,170045,84020
167739,-40,15524,4368,91,1136,-379,170111,84168
167879,-248,15228,4124,-323,-588,204,170175,84152
168019,148,15516,4520,643,-110,-528,170172,84124
168159,-136,15404,4252,-472,1238,135,170086,84106
168301,108,15280,3992,-250,1016,443,170250,84118
168441,-236,15224,4352,315,698,346,170230,84147
168581,68,15440,4608,-793,-1035,504,170183,84220
168721,-648,15672,4496,-1342,-1078,233,170174,84113
168861,276,15364,4352,-279,-1013,-826,170140,84132
169003,472,15024,4816,-17,-1968,-474,170248,84091
169143,-60,15648,4500,-704,-293,-233,170295,84157
169283,84,14996,4360,703,-754,-458,170204,84194
169423,460,15404,5152,212,41,-238,170158,84185
169563,304,15260,4508,-746,1248,427,170208,84160
169703,4,15252,4712,-432,420,-138,170223,84150
169845,388,15416,4636,-236,-377,-192,170362,84154
169985,480,15236,4856,-203,-160,-132,170206,84176
170125,504,15228,4876,-157,-371,139,170207,84211
170265,380,15304,4740,-311,237,31,170298,84189
170405,96,15256,4576,-35,-295,-68,170304,84205
170547,880,15260,4708,106,-143,-191,170325,84176
170687,428,15324,4828,-427,822,201,170246,84132
170827,340,15288,4552,-53,464,-174,170213,84273
170967,452,15248,4736,-371,500,-22,170181,84185
171107,184,15208,4696,60,285,-147,170070,84166
171249,324,15260,4752,-164,6,-29,169997,84144
171389,160,15200,4792,-269,90,-188,170097,84142
171529,356,15264,4780,-37,-365,-123,170037,84217
171669,276,15248,4740,-146,566,-97,170020,84217
171809,184,15328,4696,-185,27,-174,169967,84167
171949,416,15196,4932,-177,78,-171,169972,84113
172091,248,15268,4664,-310,311,115,170157,84185
172231,112,15192,4732,-48,-92,-173,170067,84163
172371,328,15332,4788,-158,-32,-47,169932,84262
172511,388,15236,4760,-162,255,-192,170070,84174
172651,284,15304,4724,-42,88,16,170036,84189
172793,408,15416,4728,-192,259,-52,170259,84212
172933,264,15292,4576,-213,409,-82,169975,84148
173073,204,15232,4788,-74,-194,-70,170055,84305
173213,384,15348,4880,-237,-56,27,170119,84246
173353,424,15296,4640,-211,-34,10,170170,84297
173495,464,15272,4876,-210,-44,-42,170048,84206
173635,440,15200,4708,-290,326,-57,170175,84235
173775,448,15296,4792,-176,208,-62,170114,84318
173915,340,15308,4732,-264,399,-48,170164,84337
174055,296,15160,4808,-99,108,-160,170039,84252
174195,524,15220,5016,-30,-77,-130,170032,84214
174337,296,15304,4800,-276,774,-172,170168,84257
174477,72,15232,4568,-142,24,-191,170090,84291
174617,388,15168,4912,31,-559,-186,170035,84313
174757,316,15284,4804,-266,158,8,170043,84283
174897,240,15228,4740,-65,-39,-92,170102,84248
175039,344,15256,4792,-147,-63,-30,170312,84303
175179,288,15360,4728,-246,253,39,170270,84307
175319,332,15232,4748,-83,-249,-29,170141,84375
175459,476,15268,4800,-292,340,-16,170274,84300
175599,164,15212,4780,-153,197,-3,170247,84337
175741,472,15252,4900,-21,-26,-110,170435,84352
175881,292,15264,4728,-190,296,11,170287,84246
176021,372,15352,4792,-136,297,-76,170251,84448
176161,400,15240,4744,-134,677,-76,170293,84345
176301,252,15212,4640,10,271,-182,170312,84339
176443,272,15240,4912,-22,43,-106,170313,84278
176583,148,15280,4668,-284,129,-9,170258,84304
176723,228,15316,4720,-133,-18,-180,170268,84394
176863,236,15272,4744,-74,-114,-68,170331,84390
177003,336,15328,4836,-127,236,-52,170353,84352
177143,200,15296,4696,-229,137,-56,170296,84354
177285,96,15268,4796,-304,193,-20,170479,84353
177425,340,15264,4852,-214,122,-22,170423,84400
177565,276,15200,4764,-128,126,-93,170409,84433
177705,276,15252,4844,-216,40,-17,170340,84386
177845,204,15300,4704,-152,81,-90,170401,84320
177987,276,15236,4772,-198,49,-77,170536,84399
178127,244,15384,4748,-210,158,-83,170518,84360
178267,352,15308,4768,-138,-78,-93,170353,84464
178407,236,15312,4788,-181,189,-126,170425,84396
178547,228,15200,4760,-258,343,-49,170432,84394
178689,224,15340,4672,-207,197,-96,170545,84363
178829,288,15180,4720,-130,130,-127,170329,84343
178969,128,15264,4804,-125,60,-113,170347,84440
179109,200,15252,4772,-173,218,-93,170385,84392
179249,152,15256,4796,-98,111,-104,170443,84421
179391,168,15252,4776,-216,20,-56,170318,84370
179531,144,15216,4696,-120,20,-115,170440,84357
179671,160,15296,4676,-173,-30,-74,170381,84443
179811,208,15204,4716,-148,-20,-131,170444,84469
179951,168,15208,4844,-161,126,-102,170316,84413
180091,116,15268,4884,-177,120,-101,170364,84368
180233,168,15224,4840,-73,-11,-134,170543,84434
180373,128,15216,4792,-43,-107,-48,170555,84400
180513,284,15320,4840,-152,42,-84,170326,84524
180653,128,15180,4776,-192,134,-68,170467,84453
180793,272,15312,4748,-124,194,-20,170474,84461
180935,136,15268,4704,-156,257,-46,170621,84436
181075,248,15212,4736,-172,-103,-140,170435,84445
181215,216,15232,4796,-98,171,-36,170475,84544
181355,288,15356,4884,-161,516,-7,170563,84546
181495,-36,15248,4612,-272,403,-62,170615,84507
181635,272,15220,4736,-185,-8,-195,170452,84477
181777,248,15276,4740,-224,157,33,170605,84463
181917,108,15260,4824,-195,378,-47,170510,84521
182057,224,15248,4776,-103,-270,-199,170517,84557
182197,260,15212,4896,-116,140,-111,170399,84512
182337,68,15252,4856,-156,-97,-33,170403,84474
182479,212,15344,4652,-170,26,-120,170596,84497
182619,104,15296,4708,-170,-28,-121,170579,84452
182759,252,15256,4816,-128,-78,-68,170459,84606
182899,208,15300,4800,-292,511,35,170545,84530
183039,132,15292,4748,-117,-144,-134,170575,84552
183181,260,15240,4792,-149,267,-68,170684,84490
183321,124,15296,4708,-56,-184,-109,170644,84544
183461,284,15252,4864,-225,54,-25,170586,84633
183601,88,15232,4668,-85,-267,-130,170688,84633
183741,372,15300,4876,-139,35,-74,170720,84601
183881,172,15168,4748,-106,274,-82,170680,84602
184023,232,15228,4796,-164,476,-60,170797,84574
184163,68,15344,4700,-156,221,-72,170696,84623
184303,232,15196,4748,-227,246,-42,170693,84664
184443,156,15220,4736,-174,333,-151,170640,84597
184583,152,15324,4764,-126,166,-140,170559,84522
184725,136,15156,4908,-121,196,-71,170693,84598
184865,92,15168,4768,-233,54,-74,170617,84561
185005,180,15312,4864,-45,-103,-213,170603,84668
185145,180,15304,4808,-190,195,-71,170607,84561
185285,112,15252,4864,-111,-63,-173,170646,84604
185427,208,15220,4744,-124,266,-27,170816,84593
185567,148,15376,4700,-122,-85,-48,170749,84579
185707,280,15232,4688,-134,167,-24,170711,84684
185847,48,15264,4720,-75,-17,-30,170743,84655
185987,276,15352,4716,-157,55,-26,170799,84682
186129,152,15264,4652,-131,11,-94,170890,84612
186269,328,15296,4756,-130,24,-77,170811,84662
186409,108,15176,4736,-261,371,-17,170743,84718
186549,276,15312,4800,-182,-5,-16,170766,84710
186689,192,15228,4708,-181,625,-17,170769,84677
186829,216,15256,4660,-119,125,-44,170588,84593
186971,224,15224,4772,-282,207,-48,170724,84622
187111,168,15284,4784,-233,199,-11,170643,84633
187251,160,15220,4852,-129,-226,-99,170607,84680
187391,160,15316,4776,-154,-77,-111,170557,84626
187531,180,15336,4820,-204,-88,-60,170621,84609
187673,312,15228,4780,-231,78,-90,170777,84627
187813,108,15204,4736,-209,-92,-86,170758,84577
187953,240,15296,4940,-184,-90,-169,170656,84733
188093,284,15224,4892,-221,198,-110,170690,84662
188233,236,15272,4904,-174,139,-171,170687,84667
188375,96,15248,4780,-95,188,-101,170812,84625
188515,156,15268,4896,-44,-123,-238,170766,84644
188655,160,15256,4700,-188,185,-114,170716,84755
188795,120,15188,4668,-64,43,-202,170777,84736
188935,252,15252,4808,-42,31,-140,170866,84711
189075,8,15200,4700,-189,425,-36,170760,84659
189217,-108,15240,4744,-156,-184,-70,170823,84665
189357,240,15256,4780,-309,164,-7,170750,84693
189497,24,15216,4664,-232,295,-63,170713,84723
189637,-12,15276,4884,-31,-59,-78,170689,84617
189777,160,15288,4688,-155,41,-36,170624,84639
189919,64,15200,4688,-146,-250,-140,170731,84612
190059,176,15224,4836,-220,71,-35,170730,84651
190199,-4,15304,4808,-120,160,-94,170654,84719
190339,128,15328,4784,-149,-90,-32,170716,84707
190479,72,15268,4756,-206,139,-24,170762,84686
190619,24,15188,4792,-133,-136,-70,170773,84726
190761,276,15256,4912,-184,60,-24,170859,84688
190901,72,15328,4680,-168,106,19,170804,84734
191041,164,15324,4772,-115,-50,-171,170797,84783
191181,100,15224,4760,-190,-111,-112,170903,84764
191321,248,15300,4828,-52,-132,-197,170770,84722
191463,72,15228,4796,-259,726,-11,170946,84745
191603,-24,15252,4576,-171,287,-118,170842,84701
191743,96,15204,4856,-113,20,-183,170862,84806
191883,184,15188,4872,-269,275,-24,170733,84745
192023,-24,15264,4972,-169,310,-98,170723,84746
192165,4,15136,4916,-168,153,-80,170698,84699
192305,68,15244,4684,-194,61,-71,170819,84685
192445,32,15212,4864,-96,-5,-139,170612,84750
192585,48,15220,4756,-96,29,-115,170692,84772
192725,152,15340,4716,-216,162,-120,170761,84755
192865,-52,15312,4748,-89,157,-111,170819,84752
193007,148,15164,4680,-68,-142,-45,170853,84722
193147,80,15228,4760,-118,109,-15,170808,84726
193287,116,15284,4772,-162,31,-36,170905,84842
193427,76,15312,4624,-93,-77,-99,170967,84814
193567,152,15288,4780,-151,122,-73,170832,84804
193709,-28,15284,4664,-262,349,58,170868,84793
193849,92,15216,4692,-77,-67,-87,171026,84770
193989,112,15332,4828,-2,-20,-82,170989,84871
194129,56,15304,4588,-428,579,74,170866,84855
194269,-56,15284,4708,-99,-116,-207,170867,84814
194409,172,15224,4736,-248,142,-152,170844,84738
194551,52,15288,4800,-122,102,-147,170978,84797
194691,112,15156,4764,-236,508,-66,170768,84739
194831,-172,15208,4696,-125,263,-133,170750,84834
194971,96,15328,4804,5,-444,-212,170858,84756
195111,80,15208,4828,-208,178,-153,170930,84814
195253,-160,15268,4844,-220,418,-118,170964,84790
195393,-80,15248,4692,-131,185,-85,170933,84777
195533,156,15328,4800,-135,-186,-75,170932,84926
195673,-68,15292,4780,-336,476,40,171048,84830
195813,-84,15316,4728,-75,-191,-108,170960,84824
195955,72,15268,4684,-176,95,29,171062,84813
196095,20,15304,4696,-127,-41,-105,171053,84818
196235,-136,15364,4768,-127,308,-88,171170,84953
196375,-72,15204,4740,-99,251,-76,171152,84895
196515,24,15244,4728,-154,235,38,171127,84908
196657,-104,15256,4764,-202,157,-100,171091,84854
196797,-96,15244,4812,-181,-45,-16,171191,84853
196937,36,15216,4760,-129,169,-85,171064,84920
197077,-80,15312,4744,-228,276,-59,171004,84923
197217,-52,15300,4720,-172,9,-144,170988,84865
197357,-4,15300,4780,-189,138,-72,171009,84814
197499,-36,15264,4876,-152,-219,-174,171152,84844
197639,-160,15288,4780,-194,78,-59,171016,84819
197779,-8,15224,4780,-114,-53,-178,171056,84997
197919,40,15252,4780,-165,145,-59,171161,84917
198059,-128,15240,4796,-126,180,-130,171171,84905
198201,-52,15244,4760,-169,-69,-70,171086,84830
198341,-108,15300,4840,-201,2,-53,171253,84882
198481,48,15232,4864,-142,145,-33,171209,84974
198621,8,15244,4684,-159,106,-118,171245,84984
198761,44,15280,4896,-155,162,-61,171133,84926
198901,-20,15188,4804,-171,144,-92,171189,84869
199043,40,15252,4748,-162,308,-98,171315,84943
199183,-64,15152,4724,-209,328,-59,171257,84911
199323,-76,15288,4708,-175,367,-82,171075,85010
199463,-84,15228,4836,-243,201,-120,171126,84881
199603,-68,15208,4764,-256,-24,-120,171093,84909
199745,-72,15232,4824,-132,-100,-171,171155,84850
199885,-212,15252,4836,-209,217,-61,171046,84897
200025,-276,15144,4772,-167,110,-149,171027,84982
200165,-168,15248,4848,-178,-48,-163,171085,84965
200305,-156,15204,4796,-161,-59,-173,171049,84907
200445,-148,15132,4708,-135,-104,27,171029,84884
200587,-232,15176,4820,-230,-60,-21,171226,84936
200727,-188,15212,4744,-177,-15,-65,171179,84965
200867,-52,15188,4860,-75,-211,-102,171097,84998
201007,48,15304,4920,-189,240,93,171172,84951
201147,-108,15200,4840,-122,134,-147,171155,84968
201289,-24,15204,4920,-82,170,-31,171350,85000
201429,-48,15256,4928,-94,73,-58,171133,84924
201569,0,15212,4796,-81,348,-20,171181,85063
201709,-164,15208,4776,-216,307,-13,171170,84994
201849,44,15184,4848,-149,-111,-132,171201,85027
201991,-56,15188,4864,-189,144,-47,171026,84939
202131,-104,15228,4752,-122,89,-66,171137,84938
202271,60,15256,4904,-163,230,-136,171056,85017
202411,-176,15276,4680,-175,-591,-141,171087,85036
202551,100,15300,4920,-223,35,-49,171028,84975
202691,28,15176,4800,-199,125,-283,171074,84971
202833,-140,15264,4840,-296,236,12,171271,85011
202973,104,15252,4764,224,-160,-346,171225,85009
203113,-188,15188,4964,-543,-72,11,171094,85133
203253,276,15252,4952,-33,-332,-230,171188,85021
203393,-136,15276,4840,-208,772,50,171245,85056
203535,-68,15276,4876,-97,-140,-175,171353,85024
203675,140,15280,4940,-332,339,-90,171221,85033
203815,-180,15216,4880,-167,379,-51,171294,85141
203955,-24,15280,4968,-209,306,-93,171328,85116
204095,-148,15224,4888,-141,268,-189,171300,85091
204235,-64,15156,4896,-187,263,-101,171159,85053
204377,-192,15204,4824,-120,136,-130,171326,85058
204517,-124,15196,4876,-154,24,-53,171261,85081
204657,-152,15124,5008,-205,144,-106,171165,85099
204797,-244,15148,4824,-153,-166,-75,171153,85016
204937,-80,15196,4932,-176,-144,-145,171189,85078
205079,-140,15156,4852,-183,10,-84,171344,85000
205219,-92,15248,4772,-140,96,-63,171408,85049
205359,-144,15120,4820,4,-84,-54,171325,85136
205499,-68,15224,4968,-121,61,-64,171386,85175
205639,-40,15200,4956,-223,165,-14,171424,85146
205779,-36,15248,4952,-110,48,-88,171363,85104
205921,28,15224,5020,-177,-6,-20,171508,85133
206061,-12,15196,4924,-170,22,-92,171441,85097
206201,-20,15248,4940,-146,247,-3,171563,85229
206341,-80,15144,4876,-212,440,-65,171535,85197
206481,-60,15152,4912,-186,126,-29,171418,85152
206621,-84,15196,4952,-212,110,-109,171421,85122
206763,-28,15120,4964,-251,94,-95,171521,85157
206903,-28,15176,4900,-86,78,-98,171418,85128
207043,-112,15160,4992,-175,109,-97,171263,85211
207183,-184,15220,4792,-131,-239,-102,171327,85110
207323,44,15168,4940,-80,-320,-138,171386,85156
207465,0,15200,4956,-164,9,-68,171405,85111
207605,48,15244,4856,-179,92,-20,171454,85110
207745,-72,15232,4816,-131,-76,12,171439,85156
207885,164,15212,4908,-98,-213,-74,171484,85247
208025,116,15208,4912,-94,291,-74,171569,85155
208165,-8,15272,4832,-115,125,60,171415,85160
208307,68,15296,4928,-141,-24,-132,171557,85138
208447,60,15276,4852,-155,-59,13,171585,85198
208587,360,15288,5004,-144,224,-142,171582,85253
208727,68,15204,4728,-274,628,-24,171492,85245
208867,104,15304,4852,-209,285,-151,171496,85192
209007,-4,15168,4760,-253,174,-118,171479,85110
209149,84,15224,4920,-159,87,-222,171548,85185
209289,48,15208,4928,-302,298,-109,171357,85139
209429,-72,15196,4784,-210,50,-207,171308,85273
209569,-36,15140,4924,-194,-208,-105,171384,85155
209709,72,15272,5080,-133,57,-160,171420,85186
209851,-64,15104,4952,-201,-10,-178,171383,85155
209991,108,15152,5024,-116,-9,-110,171519,85151
210131,-44,15208,4936,-241,261,-53,171499,85233
210271,-60,15116,4876,-117,-56,-91,171462,85248
210411,108,15136,4984,-203,-3,44,171430,85202
210551,-68,15172,4948,-159,31,-64,171466,85141
210693,132,15248,4860,-109,-182,-57,171641,85238
210833,-16,15256,5024,-119,101,-123,171513,85217
210973,176,15268,4956,-262,173,-28,171461,85325
211113,80,15160,4976,-133,645,-68,171495,85224
211253,-76,15216,4892,-187,201,-67,171561,85238
211395,60,15220,4924,-158,-14,-127,171416,85137
211535,-56,15132,4988,-151,-13,-102,171486,85198
211675,152,15224,4944,-179,-27,-143,171408,85257
211815,64,15312,4912,-144,166,-112,171421,85262
211955,-8,15216,4952,-138,40,-169,171276,85170
212095,76,15240,4872,-166,6,-146,171382,85138
212237,-40,15196,4788,-204,92,-55,171513,85218
212377,80,15176,5036,-97,-100,-116,171460,85193
212517,-40,15124,4884,-141,-27,-48,171372,85333
212657,-36,15136,4940,-128,-42,-97,171489,85242
212797,20,15168,4908,-78,278,-70,171555,85281
212939,100,15200,5004,-77,417,-28,171468,85179
213079,84,15176,4924,-224,417,-36,171545,85209
213219,-76,15196,4656,-216,-83,-103,171459,85304
213359,-20,15204,5028,-33,-429,-110,171498,85326
213499,208,15236,5020,-225,-15,-52,171433,85265
213639,-80,15204,4860,-216,214,-64,171516,85226
213781,144,15248,4968,-72,-50,-76,171646,85291
213921,36,15332,4956,-237,388,-34,171639,85314
214061,68,15176,4796,-28,-5,-66,171491,85376
214201,20,15192,4888,-244,-24,63,171595,85297
214341,36,15220,4884,-121,-138,-123,171649,85312
214483,168,15216,4976,-96,314,-63,171769,85308
214623,8,15216,4884,-247,352,-46,171616,85292
214763,40,15196,4872,-120,-225,-161,171688,85407
214903,212,15272,4884,-68,40,-82,171756,85375
215043,0,15316,4776,-159,188,-101,171814,85390
215185,72,15156,4796,-140,49,-109,171686,85331
215325,152,15236,5040,-43,159,-158,171853,85345
215465,-172,15248,4796,-494,618,172,171793,85432
215605,168,15232,4844,135,-717,-393,171793,85435
215745,424,15172,4964,-385,785,129,171637,85370
215885,-168,15120,4912,-227,33,-200,171653,85337
216027,304,15304,5068,-157,68,-36,171759,85371
216167,-80,15256,4924,-86,421,-150,171676,85283
216307,56,15220,4984,-69,173,-170,171565,85424
216447,-176,15476,4860,-195,703,-151,171578,85361
216587,0,14656,4672,906,3630,-274,171567,85356
216729,-492,15980,4420,821,2368,171,171655,85325
216869,-668,15360,4772,168,3028,22,171697,85315
217009,-1452,17496,4016,-629,1067,339,171821,85397
217149,-956,15304,3920,-522,1152,-261,172456,85555
217289,-1876,15228,4172,-1037,687,543,172292,85488
217429,-1528,15268,4096,-1268,164,235,171991,85460
217571,-1812,14056,4300,-1030,84,-27,172269,85483
217711,-1520,15116,4664,217,-927,-786,172185,85413
217851,-1940,15436,5308,-767,140,-1250,172363,85588
217991,-1632,14980,5488,-592,-1513,-1085,172297,85537
218131,-2036,14452,5324,24,-1149,-638,172277,85532
218271,-1804,14924,5516,-64,-1878,-324,172301,85489
218413,-1788,14392,5152,541,-536,176,172494,85493
218553,-1436,14884,5208,100,1053,392,172289,85523
218693,-688,15072,5020,-256,1973,1592,172195,85549
218833,-1524,15220,5132,159,921,157,172322,85514
218973,-1476,15216,4988,-566,481,-23,172368,85507
219115,-1428,15224,4844,-1017,-334,409,172391,85494
219255,-1220,14752,5088,-294,-1163,-338,172322,85451
219395,-1332,14940,5196,98,-1129,-577,172425,85617
219535,-1332,14812,5276,260,-1008,-672,172526,85559
219675,-1092,15112,5276,690,-369,-713,172366,85537
219817,-1436,15144,5312,3,-559,-253,172347,85521
219957,-1268,15020,5028,-596,483,-188,172495,85523
220097,-2040,15232,4988,-685,941,-24,172671,85651
220237,-1520,14816,5160,-430,-266,-262,172639,85666
220377,-1676,15108,5624,-671,-488,-382,172487,85600
220517,-1164,14652,5420,-930,-910,-82,172447,85506
220659,-924,14700,5556,-260,-651,2,172560,85575
220799,-1072,14728,6152,320,397,-502,172577,85515
220939,-1388,15108,5876,-423,544,125,172342,85644
221079,-1556,14672,5424,84,839,-183,172410,85533
221219,-1068,14868,5788,-67,168,17,172445,85567
221361,-1420,14892,5544,-115,800,-155,172543,85501
221501,-1684,14884,5660,-380,301,-261,172169,85458
221641,-1276,14828,5372,-384,208,-240,171984,85515
221781,-1584,14720,5316,-339,471,275,172117,85505
221921,-1900,14820,5728,-146,243,151,172250,85522
222061,-1788,14772,5568,-335,-82,-155,172216,85502
222203,-1708,14720,5740,-149,375,-287,172734,85588
222343,-1948,14748,5796,-346,64,-245,172841,85682
222483,-1544,14796,5756,-203,76,-51,172873,85735
222623,-1748,14736,5868,12,266,-42,172839,85670
222763,-1916,14520,5664,-181,96,-111,172719,85627
222905,-1936,14772,5824,287,277,-42,172851,85667
223045,-1784,14836,5648,-214,526,60,172795,85587
223185,-1924,14856,5488,-365,280,-281,172711,85738
223325,-1936,14584,5532,-212,-228,-515,172641,85645
223465,-1868,14592,5532,-78,-111,-250,172668,85652
223607,-1828,14800,5680,-160,-222,-72,172740,85558
223747,-2036,14556,5532,-342,-32,50,172830,85627
223887,-1632,14744,5776,120,-418,-105,172602,85682
224027,-1988,14792,5540,-238,95,83,172679,85699
224167,-1976,14776,5620,-75,333,-157,172742,85644
224307,-2060,14748,5568,-30,315,-339,172750,85618
224449,-1868,14736,5648,-122,89,-218,172745,85617
224589,-1756,14764,5600,-103,-27,91,172721,85645
224729,-2132,14764,5504,-308,254,305,172686,85756
224869,-2148,14820,5428,-199,313,8,172817,85644
225009,-1880,14620,5320,57,-176,-155,172631,85637
225151,-1644,14784,5504,515,225,59,172678,85582
225291,-1708,15188,5700,86,877,396,172532,85590
225431,-1832,15060,5340,-616,1029,381,172292,85621
225571,-1804,14860,5188,-552,1090,155,172152,85570
225711,-1788,14772,5048,-217,1039,192,172181,85517
225851,-1716,15084,5076,82,115,330,172228,85465
225993,-1932,14868,5248,123,570,414,172337,85560
226133,-1512,15172,5392,115,-80,-361,172112,85472
226273,-1484,14864,5040,-203,-395,-227,172065,85633
226413,-1520,15040,5004,19,-317,150,172107,85518
226553,-1736,15080,5088,347,43,-276,172092,85535
226695,-1500,15012,5120,-14,-295,-427,171949,85406
226835,-1452,14944,4968,-131,-38,-266,172081,85444
226975,-1620,14876,5160,-136,-111,-86,172006,85545
227115,-1600,15076,5088,-32,-97,-144,172105,85588
227255,-1400,15064,4788,-194,-140,107,171987,85484
227395,-1528,15104,4824,-106,381,583,171989,85502
227537,-1596,15112,4860,-232,404,128,172176,85454
227677,-1392,15016,4824,-252,250,-57,172240,85485
227817,-1248,15172,4748,-168,-6,-125,172009,85537
227957,-1236,15156,4704,-1,128,-46,172048,85583
228097,-1232,15172,4760,191,5,-121,172084,85528
228237,-1376,15168,4976,-138,73,-195,172111,85530
228379,-1248,15144,5028,-293,-143,-364,172120,85474
228519,-1172,15164,5036,-381,196,-210,172126,85534
228659,-1396,15116,4864,-406,210,17,172094,85600
228799,-1572,15080,4980,-246,188,-223,172156,85621
228939,-1568,15048,5020,-172,92,-360,172081,85553
229079,-1284,14992,4980,-87,29,-121,172030,85529
229221,-1492,15016,5020,-98,56,74,172175,85502
229361,-1568,15108,4992,-116,26,-48,172165,85511
229501,-1492,15080,4916,-169,-146,-49,172108,85628
229641,-1528,15064,4992,-154,-18,-79,172126,85602
229781,-1532,15048,5068,-170,61,-39,172162,85557
229921,-1276,15148,5004,15,253,62,172242,85506
230063,-1472,15252,4744,-308,675,93,172390,85575
230203,-1676,15032,4680,-309,579,138,172209,85535
230343,-1500,15200,4984,-193,-135,-258,172206,85698
230483,-1368,15024,4948,-120,-321,-283,172281,85572
230623,-1408,15156,5104,-137,26,-108,172287,85608
230765,-1368,15016,4964,-248,-166,-86,172274,85521
230905,-1308,15184,5144,-243,-62,-174,172287,85569
231045,-1400,15096,5196,-190,-52,-179,172267,85645
231185,-1292,15008,5148,-185,27,-129,172365,85620
231325,-1412,15016,5072,-256,159,28,172326,85624
231467,-1416,15072,5128,-146,-30,-84,172207,85546
231607,-1236,15100,5032,-325,-203,-161,172366,85561
231747,-1204,15036,5112,-130,-260,-96,172326,85658
231887,-1344,15040,5168,-107,-38,42,172386,85682
232027,-1336,14936,5272,-197,219,23,172257,85601
232167,-1148,15052,5120,-170,359,18,172289,85540
232309,-1216,15108,4992,-286,288,88,172430,85613
232449,-1348,15036,5000,-243,-80,12,172415,85636
232589,-1368,15072,5092,82,-83,-367,172349,85634
232729,-1272,14960,5244,-76,26,-356,172294,85600
232869,-1208,15036,5252,-205,245,-106,172234,85588
233011,-1304,15020,5088,-349,39,185,172409,85622
233151,-1592,15024,5072,-223,-6,-36,172397,85605
233291,-1424,14992,5148,51,55,-351,172227,85662
233431,-1228,15048,5028,-40,249,-255,172325,85602
233571,-1372,14972,5204,-230,101,-125,172260,85621
233713,-1344,15048,5108,-411,47,123,172454,85636
233853,-1448,14956,5056,-251,168,87,172319,85576
233993,-1452,14988,5080,-125,139,-119,172190,85725
234133,-1280,14988,5084,-43,99,-124,172268,85587
234273,-1196,15052,5048,-57,-33,48,172230,85624
234415,-1228,15260,5052,-86,-268,70,172415,85618
234555,-1300,15032,5060,11,-242,-165,172190,85540
234695,-1176,15088,5132,-156,-160,-290,172233,85718
234835,-936,15036,4936,45,132,15,172318,85640
234975,-1280,14980,5192,-83,340,327,172335,85679
235117,-1332,15144,5040,-306,44,24,172211,85537
235257,-1104,15232,4944,-215,224,-197,172314,85597
235397,-1064,15112,4964,-111,41,-152,172248,85705
235537,-1192,15204,5052,-169,-72,-131,172323,85722
235677,-1264,15036,4980,-152,16,-127,172267,85655
235817,-1292,15180,5032,-93,143,-260,172198,85647
235959,-1212,14916,5204,-99,109,-318,172368,85638
236099,-1168,15168,4992,-117,397,-181,172316,85707
236239,-1288,15004,5068,-48,405,-101,172331,85738
236379,-1280,15192,5000,-91,441,-45,172197,85660
236519,-1256,15164,4800,-324,294,252,172241,85584
236661,-1404,15180,4836,-217,87,268,172387,85670
236801,-1524,15156,4984,-306,107,-46,172319,85691
236941,-1304,15096,4896,-268,-16,-232,172158,85713
237081,-1276,15080,4900,-32,-184,-114,172225,85678
237221,-1172,15116,4784,83,-75,-22,172227,85617
237363,-1244,15068,4872,178,181,134,172409,85683
237503,-1168,15156,4956,48,113,108,172224,85673
237643,-1196,15272,4840,-205,380,62,172236,85743
237783,-1248,15240,4816,-192,305,-86,172293,85727
237923,-1164,15152,4756,-219,498,-113,172309,85697
238065,-1220,15204,4708,-139,375,-137,172348,85703
238205,-1216,15220,4940,-81,447,-46,172313,85674
238345,-1376,15184,4752,-251,353,-23,172314,85806
238485,-1404,15268,4588,-240,251,5,172447,85709
238625,-1400,15240,4688,-118,185,-88,172296,85719
238767,-1372,15164,4672,-150,54,-194,172431,85737
238907,-1320,15168,4860,-282,44,-186,172343,85675
239047,-1392,15036,4884,-182,110,-38,172367,85861
239187,-1304,15180,4660,-153,300,-29,172382,85742
239327,-1248,15168,4716,-97,-53,44,172215,85727
239469,-1416,15240,4892,-220,-61,260,172325,85709
239609,-1256,15216,4840,-392,-38,64,172339,85712
239749,-1236,15264,4864,-65,316,101,172378,85839
239889,-1280,15360,5076,-206,155,-2,172301,85744
240029,-1300,15048,4648,-88,279,-187,172339,85791
240171,-1180,15152,4744,131,271,-210,172341,85752
240311,-1220,15148,4816,-262,120,20,172512,85757
240451,-1444,15160,4904,-277,-7,8,172311,85822
240591,-1252,15092,4820,-290,-37,-161,172369,85855
240731,-1164,15356,4952,8,-103,-239,172413,85807
240871,-1412,15056,5112,-293,-214,-112,172460,85753
241013,-1128,15148,4920,-300,67,-280,172579,85807
241153,-1192,15084,4812,15,438,-253,172435,85760
241293,-1116,15228,4892,-66,122,119,172399,85902
241433,-1384,15176,4720,-197,-69,-72,172493,85831
241573,-1204,15204,4712,-20,-97,-179,172514,85839
241715,-1120,15224,4828,-25,-87,-64,172446,85720
241855,-1136,15192,4892,-65,224,61,172551,85786
241995,-1236,15184,4844,-182,238,81,172537,85871
242135,-1188,15268,4652,-217,192,-59,172603,85887
242275,-1168,15176,4660,-41,186,-63,172557,85814
242415,-1288,15196,4840,-184,361,-28,172535,85765
242557,-1260,15188,4660,-255,6,-126,172689,85832
242697,-1140,15232,4592,-213,-18,18,172655,85866
242837,-1344,15272,4740,51,36,-320,172597,85885
242977,-1080,15232,4808,-80,222,-330,172569,85806
243117,-1320,15204,4844,-376,-378,-109,172499,85818
243259,-1172,15192,4776,-382,41,-77,172686,85832
243399,-1212,15152,4656,-376,-1739,-73,172600,85763
243539,-1264,15052,4796,-186,257,-118,172495,85876
243679,-1196,15172,4768,-100,362,-198,172523,85827
243819,-1444,15040,5240,-550,-385,-200,172469,85837
243959,-1196,15184,4880,-684,187,-468,172447,85809
244101,-1408,14884,4888,-152,453,-344,172518,85787
244241,-1320,15056,5240,-297,-65,-47,172385,85830
244381,-1464,14736,5092,-296,-138,-20,172418,85873
244521,-1296,15096,5276,-108,-238,53,172480,85828
244661,-1180,14968,5260,-215,-135,-124,172263,85778
244803,-1264,15080,5352,71,203,124,172429,85787
244943,-1356,15084,5232,-126,10,147,172346,85762
245083,-1188,15004,5196,-104,598,111,172359,85874
245223,-1224,14968,4956,-232,629,154,172284,85832
245363,-1052,15300,4776,292,736,191,172240,85797
245503,-1392,15216,5124,206,593,-227,172269,85737
245645,-1304,14976,4896,-627,-365,-255,172435,85819
245785,-1120,15084,4756,-11,-65,-434,172320,85800
245925,-1048,15028,4808,181,335,-9,172228,85918
246065,-1212,15248,5060,-175,263,360,172361,85812
246205,-1328,15136,4844,-347,108,471,172387,85849
246347,-1344,15280,4624,-129,189,162,172392,85766
246487,-1348,15180,4752,-190,-136,-32,172430,85804
246627,-1276,15224,4904,-81,92,-318,172382,85903
246767,-1336,15060,4836,-203,-56,-355,172422,85961
246907,-1192,15112,4872,-92,383,-327,172456,85883
247047,-1340,15096,4844,-265,154,-60,172368,85861
247189,-1348,15112,4848,-198,222,-60,172562,85896
247329,-1336,15020,4912,-183,133,-226,172471,85823
247469,-1444,15012,4944,-304,37,-190,172503,85952
247609,-1460,15028,5088,-40,100,-37,172449,85900
247749,-1248,14912,5072,62,425,-43,172471,85894
247889,-1188,15220,4928,-427,262,508,172451,85885
248031,-1524,15140,4832,-382,226,345,172618,85858
248171,-1452,15184,4752,-30,-178,-261,172447,85878
248311,-1028,15156,4796,206,-470,-402,172432,85949
248451,-1036,15160,5004,153,-221,-113,172561,85873
248591,-1024,15268,4960,-198,-49,132,172510,85895
248733,-1256,15176,4828,-484,83,184,172538,85869
248873,-1180,15240,4740,-289,126,-12,172540,85865
249013,-988,15196,4824,-131,127,-18,172543,85954
249153,-1160,15204,4912,-110,188,-54,172649,85967
249293,-1228,15168,4828,-267,-175,-132,172506,85914
249433,-1180,15104,4784,30,114,-316,172532,85884
249575,-1120,15296,5192,-78,-269,-344,172708,85936
249715,-1000,15088,5032,-334,-223,-339,172693,85943
249855,-1096,15068,4992,-207,-237,-167,172512,86007
249995,-1184,15120,5092,-28,-102,-303,172601,85896
250135,-1112,15096,4964,-84,46,-334,172578,85934
250277,-1036,15064,4968,-188,524,12,172691,85909
250417,-1388,15040,4924,-327,-95,212,172665,85917
250557,-1336,15068,4792,-75,228,176,172550,85990
250697,-1480,15156,5024,-5,541,-37,172587,85996
250837,-1128,15272,5000,-118,190,-115,172629,85939
250977,-1196,15144,4808,-388,26,-16,172622,85908
251119,-1320,15188,4792,-187,-28,-214,172686,85932
251259,-1148,15080,4932,-54,-254,-287,172602,85862
251399,-1068,15168,5036,61,165,-253,172630,86015
251539,-972,15228,4880,-285,213,78,172674,85969
251679,-1320,15080,5008,-224,-619,-67,172535,85915
251819,-1316,15144,4932,-178,185,-247,172519,85912
251961,-1264,15168,4912,-150,277,-264,172683,85960
252101,-1100,15020,4816,-123,464,18,172668,85961
252241,-1380,15220,5132,-593,293,128,172512,86030
252381,-1296,15240,4940,-620,-681,15,172561,85914
252521,-1036,15048,4808,220,-86,-584,172517,85955
252663,-1292,15144,5040,-32,-600,-204,172617,85891
252803,-988,14984,5024,-35,7,161,172599,85907
252943,-1068,15208,5088,-85,138,187,172470,86001
253083,-1244,15148,4868,-282,301,120,172534,86011
253223,-1224,15104,4820,-101,374,-114,172568,85963
253363,-1032,15260,4772,167,458,-139,172553,85919
253505,-1128,15408,4888,119,259,-168,172574,85953
253645,-1364,15272,5028,-162,414,-297,172527,85881
253785,-1192,15020,4828,-512,-481,-485,172571,86048
253925,-1200,15312,4784,-250,-360,-86,172618,85988
254065,-1192,15028,5084,-200,117,329,172471,85973
254205,-1112,15368,5008,-511,117,399,172466,85922
254347,-1332,15212,5100,-142,92,-22,172628,85981
254487,-1088,15176,4940,-267,-18,-47,172603,85990
254627,-1340,15204,4944,-161,-130,-110,172410,86007
254767,-872,15200,4976,388,54,-448,172526,85938
254907,-940,15140,5220,-214,395,-191,172513,85967
255049,-764,15092,4704,-730,-269,381,172626,85908
255189,-992,15224,4728,-79,-3,521,172552,85927
255329,-1100,15108,4796,196,-59,-25,172506,86004
255469,-960,15264,4932,343,243,-358,172585,86029
255609,-816,15312,4800,-358,-130,-110,172628,85993
255749,-1004,15120,4684,-354,79,-62,172468,85901
255891,-996,15196,4756,-161,-272,-157,172682,85980
256031,-888,15224,4820,129,-272,-328,172651,85945
256171,-812,15316,5104,-86,-537,-386,172637,86096
256311,-632,15080,4848,-446,49,119,172606,86006
256451,-1008,15268,4924,-195,227,192,172646,86017
256593,-856,15248,4796,-148,271,-225,172673,85978
256733,-640,15392,4600,-92,392,-77,172801,85950
256873,-1040,15264,4768,208,473,-300,172634,86058
257013,-1060,15152,4848,-181,-635,-511,172719,86060
257153,-932,15200,4736,-95,-630,-321,172681,86022
257293,-940,15280,5000,-96,-391,-305,172781,85949
257435,-804,15192,4992,-193,411,-61,172788,86007
257575,-1016,15256,4720,-128,754,88,172749,85980
257715,-1344,15332,4564,-276,773,277,172760,86126
257855,-1372,15104,4552,238,128,-316,172778,85992
257995,-1220,15120,4620,216,-116,-559,172725,86004
258137,-984,15780,4716,-283,-474,2,172802,85962
258277,-1176,15048,4668,-662,-499,135,172817,86015
258417,-1208,15176,4688,113,282,-95,172736,86083
258557,-1200,15192,4976,-237,294,-125,172685,86070
258697,-1140,15140,4736,-507,207,-8,172721,86008
258837,-1344,15208,4496,-318,234,121,172780,85988
258979,-1340,15136,4584,20,66,-180,172860,86027
259119,-1068,15252,4824,-132,-313,-265,172716,86035
259259,-876,15164,4808,-153,-207,-119,172751,86093
259399,-1152,15164,4740,-313,-57,136,172822,86020
259539,-1076,15180,4668,-139,154,-52,172804,86025
259681,-1056,15408,4572,-9,49,-228,172873,86012
259821,-892,15340,4768,-4,210,-175,172780,86018
259961,-1096,15300,4812,-280,-498,-202,172855,86123
260101,-1288,15236,4940,-425,-125,-108,172879,86072
260241,-980,14892,4592,-99,212,-661,172814,86068
260383,-1044,15036,4668,-555,-733,308,172808,86018
260523,-1172,15360,4892,625,1273,409,172856,85997
260663,-936,15236,4732,-670,-40,383,172825,86106
260803,-796,15396,4804,418,152,-217,172789,86109
260943,-1252,15400,4616,-434,-1141,-56,172733,86048
261083,-856,15108,4744,331,117,-475,172793,85986
261225,-1216,15416,4816,-483,-974,75,172928,86041
261365,-772,15272,4812,586,-141,-467,172861,86002
261505,-1004,15312,4624,-651,-424,168,172733,86135
261645,-804,15144,4528,528,261,-432,172785,86042
261785,-900,15464,4624,-245,-219,-35,172781,86060
261927,-808,15280,4780,77,335,-355,172817,85972
262067,-792,15312,4464,-195,919,255,172786,86003
262207,-1244,15144,4548,-870,795,659,172742,86095
262347,-1104,15472,4264,-333,530,124,172810,86114
262487,-1176,15524,4620,1,-240,-408,172828,86068
262627,-916,15008,4532,-79,101,-664,172766,86011
262769,-692,15316,4420,279,595,-5,172917,86050
262909,-1124,15400,4792,-293,-519,131,172852,86004
263049,-1160,15264,4664,-590,256,154,172876,86170
263189,-1096,15212,4796,-493,10,-444,172815,86054
263329,-244,14968,4668,-350,-1402,-255,172799,86083
263471,-676,15332,4828,-143,4,287,172808,86024
263611,-1108,15160,4944,-115,579,68,172910,86019
263751,-1044,15248,4672,-203,-131,-253,172765,86090
263891,-812,15180,4856,-46,-299,-215,172776,86125
264031,-840,15292,4900,-125,-39,-22,172773,86061
264171,-984,15160,4804,-199,15,15,172810,86032
264313,-980,15216,4788,-199,7,-95,172835,86032
264453,-760,15236,4760,-193,-154,-140,172754,85983
264593,-948,15252,4852,-115,-76,-311,172785,86148
264733,-880,15124,4916,-166,-24,-310,172813,86052
264873,-892,15064,4808,-167,51,-185,172704,86039
265015,-948,15132,4968,-199,312,-43,172777,85979
265155,-992,15196,4856,-159,316,12,172797,86047
265295,-968,15296,4688,-88,168,75,172811,86115
265435,-956,15260,4772,-25,342,-145,172742,86041
265575,-1032,15112,4828,-134,-98,-62,172772,86080
265717,-1048,15228,4872,-83,-88,-129,172804,86018
265857,-1012,15388,4760,-64,41,-218,172928,86024
265997,-1048,15132,4748,-32,164,-188,172760,86104
266137,-1128,15144,4680,-192,268,-36,172805,86116
266277,-1164,15176,4576,-186,289,-75,172839,86080
266417,-1092,15352,4620,-235,54,-51,172880,86033
