time_ms,acc_x,acc_y,acc_z,gyro_x,gyro_y,gyro_z,ir,red
41967,2568,14884,4840,-84,-212,7,151721,69920
42107,2736,15056,5040,-66,97,-39,151807,69875
42249,2764,15120,5064,-204,67,-105,151887,69950
42389,2776,14980,5088,-266,216,149,151821,69996
42529,2528,14676,4980,86,486,343,151798,70008
42669,3072,16044,5480,789,1322,524,151825,69982
42809,4340,13896,5052,3266,6757,4082,151703,69941
42951,6324,15944,3948,1424,12548,6547,151588,69909
43091,5336,15284,4776,-4354,6477,4352,151489,69875
43231,5180,13260,5192,-4132,4545,2249,151797,70151
43371,1940,15520,5804,-2025,1716,-513,152348,70168
43511,1856,12064,6148,3714,5117,-1634,152833,70332
43653,328,15424,7552,7854,1970,-6894,153300,70343
43793,-536,14964,7120,4648,-3499,-6946,152964,70234
43933,2028,15024,6516,4220,4655,-3109,152243,70224
44073,1272,16504,3424,-3791,5322,6234,151968,70143
44213,864,16404,828,-1785,6656,7580,152488,70292
44355,2480,16860,3292,-412,5874,6442,152680,70277
44495,3372,15124,3736,-2428,1983,4303,152717,70323
44635,5168,13780,4180,-3431,-168,2820,152619,70398
44775,3728,14860,5348,-2104,567,-462,152770,70440
44915,1764,14268,4788,-1150,-1489,-2881,153243,70579
45057,1736,14904,4932,483,-4681,-7860,153395,70521
45197,768,16296,6732,2980,-4595,-8868,153685,70615
45337,508,14208,5748,1080,-6956,-7913,153476,70698
45477,2344,14184,5120,465,-10834,-3810,152811,70424
45617,996,14972,5736,-2399,-24,3708,152990,70495
45759,2272,16788,6580,-4663,-721,6654,152631,70418
45899,1852,14312,6828,-4406,2056,6507,152945,70485
46039,2704,13760,7356,-4616,-1673,2618,152913,70551
46179,4128,13028,8156,-3321,-3104,-2420,152887,70581
46319,5056,10968,9112,-2038,-3313,-3189,152536,70501
46459,2632,12216,8540,-2796,-4860,-5718,152924,70540
46601,2240,13096,8688,-1818,-8702,-9052,153279,70672
46741,1788,13440,8688,-1502,-11202,-10344,153548,70808
46881,4216,11940,8644,-3551,-12507,-7341,153577,70830
47021,5220,11432,8620,-1305,-8279,-3269,153239,70694
47161,5772,12496,9976,-2071,-2506,-1349,153407,70645
47303,7948,11144,10328,-7188,-4733,2268,153037,70619
47443,7732,9856,10100,-7318,-5167,2536,153125,70657
47583,6776,7356,9572,-5653,-1901,754,153278,70760
47723,7080,8804,9700,-3321,-3364,-5329,153398,70694
47863,6060,9036,8440,-1116,-5726,-10225,153545,70773
48005,6616,11688,8324,388,-9178,-13694,153744,70775
48145,9804,11988,8500,1500,-9425,-11024,153408,70713
48285,8068,11688,7616,1429,423,-3277,153747,70943
48425,6996,13576,7816,2375,281,-506,153930,70912
48565,7444,12652,7796,1206,2237,2318,153873,70889
48707,8376,12304,7192,-1734,4592,7865,153773,70779
48847,9160,13408,7056,-2577,4353,9797,153740,70818
48987,9024,9260,7880,-263,6724,10907,153966,70965
49127,8760,8408,8928,458,7266,7953,154020,70966
49267,7736,6596,9216,4661,3411,4529,154201,70986
49409,6372,9332,9052,5233,5546,-204,154534,71051
49549,7492,10440,9968,5321,-43,-4797,154600,70988
49689,6744,10556,9692,8503,8258,-3412,154320,71015
49829,6504,13264,8432,6970,7709,2267,153951,70975
49969,6364,14216,7504,3245,11400,9346,153839,70943
50109,8476,14512,6704,-1073,11515,14167,153401,70770
50251,7956,13608,10184,-7943,13117,16144,152865,70742
50391,7180,4732,10572,-7116,8791,17353,153099,70844
50531,6420,1152,11732,-1983,5003,14591,153311,70910
50671,7676,288,13004,3304,1207,12609,153452,70913
50811,7672,1432,13388,1157,975,12733,153370,70834
50953,4656,1132,11604,3764,-133,7219,153674,70924
51093,4324,3732,12496,9344,-3956,-2141,154465,71043
51233,6496,8284,13580,11626,-2292,-11534,154841,71276
51373,6444,9720,11352,8077,590,-7999,154572,71079
51513,5728,11840,9532,7965,1187,-5982,154421,71072
51655,4128,14368,7972,8206,-207,-5249,154568,71067
51795,5572,14360,6816,5175,2769,-951,154083,70958
51935,6500,15736,6140,2088,8264,2508,153618,70954
52075,5540,13584,4340,-3490,2772,7010,153466,70856
52215,5756,15140,4724,-5687,2914,4806,153721,70958
52357,5124,14676,6048,-6290,-5137,781,154008,70986
52497,5300,12080,7240,-2795,1266,661,154147,71023
52637,4904,11992,8692,-92,-2084,-4135,154288,71132
52777,4056,11844,6580,2948,-4990,-9153,154203,71050
52917,4944,14436,6648,4453,-7351,-9605,154044,71002
53059,4308,16532,5000,3319,-7696,-8892,154047,70970
53199,4256,14940,3852,962,-7071,-5546,153872,70890
53339,2896,17628,3784,-3982,-4031,1391,153850,71001
53479,3748,15356,4124,-7386,-6784,6098,153957,70978
53619,5952,13048,6584,-5360,-2564,4586,154013,71015
53761,4384,13644,6880,-5437,-1488,-479,154558,71157
53901,3780,12012,8112,-5928,-9488,-6298,154633,71128
54041,3696,13484,8908,-2473,-6624,-9474,154482,71180
54181,3152,12200,7132,581,-4726,-10126,154647,71196
54321,4144,14724,7144,897,-13157,-9768,154491,71057
54463,5072,13288,6916,187,-5863,-3837,154141,70981
54603,4388,14036,7304,-1583,-4563,1207,154126,71034
54743,4684,14300,8592,-7429,-6970,3927,154459,71172
54883,6648,11048,9232,-10819,-10192,2310,154082,71025
55023,8084,8956,10092,-7993,356,1205,153905,70923
55165,7288,7720,10364,-7444,1485,-156,153667,70910
55305,6584,6732,11388,-5158,-3143,-2764,153472,70918
55445,7648,6036,12636,-4778,629,-2636,153552,71020
55585,6284,4956,14112,-4415,2908,-1205,153228,70861
55725,4648,2608,13000,-3054,1465,124,153249,70826
55867,3332,2820,11272,1902,-2141,-2000,153331,70895
56007,5136,5468,12760,7510,-3147,-4681,153547,70982
56147,7392,8604,11920,8297,-3117,-8322,153632,71037
56287,10212,10368,11824,4982,2160,-1713,153280,70878
56427,7568,10424,12032,-1941,-72,3533,152876,70726
56569,5864,8380,10740,-3140,2971,6165,153048,70836
56709,6020,9184,11720,-1683,1046,2192,153217,70876
56849,6316,7196,11956,-337,2168,3392,153414,70983
56989,6348,7340,11936,-348,2484,3065,153229,70852
57129,6180,7152,12736,1244,2289,4337,153330,70884
57271,5928,6416,11932,3555,3558,7085,153452,70895
57411,6788,7484,13140,4262,5032,8582,153527,70884
57551,6404,7040,11632,3938,4298,10142,153182,70968
57691,7412,6828,11160,4003,3744,9030,153355,70919
57831,8972,6896,12392,4536,3911,7687,153393,70941
57973,8604,4068,11336,2568,2754,10115,153500,70864
58113,11264,4636,12156,3364,4180,11448,153489,70940
58253,9944,5232,11448,3210,7372,13230,153379,71014
58393,8480,6320,10964,3135,3602,7375,153571,71034
58533,6360,7152,10588,4515,1190,2884,154132,71122
58673,2968,8424,11328,6400,100,-3335,154684,71204
58815,5972,12552,10452,10563,-323,-9945,154640,71142
58955,6200,11884,9524,10168,992,-6646,154309,71199
59095,1388,13840,7856,7063,-885,-8645,154603,71229
59235,3256,16760,5972,5880,-2297,-4363,153503,70918
59375,2712,15152,5036,1557,-25,783,153482,70847
59517,2284,15636,4516,-953,-412,2143,153591,70938
59657,3208,14964,4332,-2210,2969,3792,153805,71017
59797,4864,17200,3392,-849,5163,1885,153938,71111
59937,3816,15060,3108,-3800,-805,5777,154522,71152
60077,5376,13924,5072,-3217,-759,4246,154691,71213
60219,5472,13856,5820,-1175,-1780,272,155004,71260
60359,5016,13532,5708,-111,-1219,-1324,154931,71281
60499,4176,14528,4648,-163,-4507,-4714,155085,71471
60639,3940,15016,4844,1048,-3779,-6727,155171,71379
60779,4452,15756,5936,-436,-4405,-4899,155105,71383
60921,2864,14060,5212,-943,-4868,-4250,155146,71365
61061,3320,15344,5492,-62,-5214,-4529,155419,71424
61201,3396,14932,5300,-49,-2686,-1637,155297,71504
61341,2880,14928,4784,-933,-3222,-287,155274,71428
61481,2116,15064,4524,-1398,-1966,1084,155320,71455
61623,3856,15976,4832,-3437,-1296,3708,155198,71375
61763,4804,14628,5500,-1642,-368,1749,155258,71402
61903,4628,13680,5664,-1846,-1007,762,155269,71483
62043,4280,14608,6224,-2668,-4844,-3309,155301,71466
62183,4216,12872,6100,-4129,-7781,-3847,155371,71478
62325,3976,14068,6744,-2298,-7227,-6282,155439,71413
62465,3904,12960,6568,-661,-6267,-5829,155656,71459
62605,3392,15036,7356,125,-5429,-5654,155569,71570
62745,2644,13332,6536,-418,-4245,-3565,155710,71594
62885,3772,14488,6376,515,-2255,-2966,155580,71511
63025,3812,14448,6172,-710,-444,117,155455,71415
63167,4380,14420,6676,-2377,-2594,2274,155470,71412
63307,4960,14512,7732,-5889,-4226,3185,155563,71528
63447,6740,12664,7780,-8247,-7175,1386,155617,71576
63587,7924,10228,8264,-7691,-7013,-354,155335,71428
63727,8876,9444,8332,-6641,-3783,-1103,155254,71386
63869,8508,9884,8952,-5689,-4791,-4381,155306,71456
64009,7704,7872,8664,-2698,-2498,-5603,155427,71523
64149,7872,10472,8240,-1547,-5189,-8981,155504,71591
64289,8424,11316,8752,1365,-4251,-10706,155517,71554
64429,6396,12964,7748,3263,-2188,-8249,155676,71495
64571,6088,12828,7380,1954,-4551,-4662,156116,71623
64711,5104,15228,6944,1990,1056,-1284,156235,71658
64851,4344,14336,6036,126,724,1060,156364,71776
64991,5376,14652,6080,-1993,1814,4591,156252,71650
65131,8652,13572,6328,-6379,-3245,11207,155996,71611
65273,10504,11064,7548,-5990,2992,11336,155805,71601
65413,9432,6416,8240,-2444,951,7101,155871,71586
65553,11216,5520,8952,-1206,597,3674,155620,71641
65693,11088,5236,9428,-1065,1335,943,155639,71529
65833,9552,4356,8096,3696,1466,-3212,155595,71557
65975,10020,7536,8960,7426,732,-8100,155655,71612
66115,10648,10732,7336,6505,4640,-7258,155891,71667
66255,6788,13908,7876,6185,1417,-6968,156539,71890
66395,5676,14064,5832,5015,7922,-3120,156477,71735
66535,6044,16052,5108,2790,9242,4417,156121,71688
66677,7756,15312,4828,-2456,12187,15157,155592,71547
66817,8236,12412,6592,-831,15444,16936,154663,71350
66957,8596,9484,8484,-914,10080,17985,154499,71487
67097,10196,6420,10580,1770,9918,13306,154333,71381
67237,7772,4880,10932,2419,4563,11228,154453,71377
67379,8404,4116,11636,3603,2473,9240,154641,71364
67519,9680,3868,12020,4461,1124,6179,154579,71369
67659,9324,4484,10992,4571,-1072,4262,154581,71479
67799,8624,6156,9308,9040,8808,1790,154627,71442
67939,4404,11236,9896,10205,1403,-2641,154764,71478
68081,3756,11940,10548,9559,-2144,-7958,154693,71332
68221,4656,14604,8904,8689,-1453,-8889,154504,71347
68361,3680,16172,6996,5255,-4040,-5452,154250,71373
68501,2252,14916,5288,338,-214,310,154710,71455
68641,2868,14772,5568,1199,3832,1654,155135,71524
68781,2608,16180,6240,-2768,3702,4430,155304,71526
68923,4476,15688,6080,-5669,2499,8990,155757,71646
69063,5660,13804,5520,-5038,690,9483,155816,71733
69203,7284,11184,6604,-2519,1441,9887,155770,71756
69343,9376,10860,7452,-849,1528,4209,155879,71729
69483,8632,9376,7376,170,-2259,-606,155626,71568
69625,9780,9088,8288,444,338,-2822,155831,71657
69765,8124,10100,7396,353,-3251,-6140,155862,71774
69905,7764,11772,6200,2171,-2092,-7943,156193,71920
70045,5856,14884,5132,4262,-1704,-10600,156542,71900
70185,4180,16604,5632,2748,78,-6630,156605,71919
70327,2744,14716,5300,2226,-752,-3661,156535,71870
70467,932,15560,4768,1393,-1532,-4402,156906,71972
70607,1728,16772,3984,70,-2517,-1711,156740,72038
70747,2460,15036,3992,-1728,-699,2430,156576,71878
70887,2156,15516,3788,-2889,-529,4501,156642,71945
71029,3164,16272,5084,-7066,-36,10148,156514,71879
71169,6744,13604,5580,-6237,769,8020,156363,71844
71309,6744,11676,6864,-2730,-739,2694,156213,71975
71449,7048,10464,7032,-2283,-1502,646,156326,71967
71589,8956,11388,7212,-3214,-3230,-5107,156650,72039
71731,7692,10900,7424,-3683,-6077,-6669,156761,71957
71871,5912,13008,8208,-4590,-3498,-7431,156854,72053
72011,5352,12872,7588,-7566,-10005,-11012,156937,72162
72151,5852,12828,8472,-5448,-10786,-12043,157096,72156
72291,6200,10384,8380,-2413,-11510,-9070,157126,72099
72433,5500,12500,8296,1214,-3449,-7006,156855,72004
72573,5448,13740,8204,-1632,-3964,-1297,157119,72053
72713,6512,12608,8964,-5188,-4942,3656,157055,72130
72853,7368,11152,9048,-8349,-3493,4657,157040,72132
72993,8536,9564,9788,-10480,-3531,3390,156803,72040
73133,9148,6880,9824,-9181,-3733,-975,156494,71945
73275,8932,4456,8572,-5682,-5138,-7205,156831,72015
73415,10740,5444,8316,-4412,-4872,-9509,156656,72024
73555,11420,7236,9020,-338,-4853,-10524,156172,71995
73695,9260,8980,8464,-709,-4803,-7736,156512,72002
73835,9860,9932,8184,-639,-5735,-7664,156787,72013
73977,8012,11080,7332,1011,-2860,-8261,157072,72093
74117,6768,13044,7580,2262,-547,-6236,156889,72045
74257,8568,12720,7848,1546,1180,822,156598,72019
74397,8440,11676,6552,-880,3485,4238,156821,72049
74537,8992,12676,5628,-1142,2214,6546,156806,71976
74679,9356,11128,6224,-205,3421,8135,156755,71983
74819,12124,10708,6612,285,-641,6342,156537,71909
74959,10860,7540,7264,2140,3765,9974,156678,72030
75099,11964,6904,7852,588,2745,6922,156802,71979
75239,11816,6368,8796,1191,163,2645,156665,71968
75381,10120,4992,8212,2258,2102,-1672,157097,72064
75521,10408,7560,7424,901,888,-6694,157053,72040
75661,10604,8836,7100,1741,824,-7124,156885,72142
75801,10008,11056,8796,7402,4179,-7105,156202,71855
75941,9972,11164,8264,4463,5463,1741,155957,71869
76083,9984,13388,7568,4233,6442,6830,156091,71834
76223,9700,11224,5656,4077,7094,11415,156408,71923
76363,14644,14056,6852,1938,14531,20594,155122,71786
76503,9620,3364,9108,-1232,7167,23591,155021,71749
76643,10656,816,9724,5441,5832,18300,155279,71787
76785,10204,192,10248,8045,85,14364,155541,71749
76925,10672,-72,11624,4422,1487,8218,155871,71830
77065,8396,160,9556,4403,-3926,3388,155946,71942
77205,10892,3876,10112,9326,1081,-2027,156465,72100
77345,9752,5968,11484,7304,-2006,-6601,156976,72096
77487,11368,7616,10104,4892,-3028,-5415,157489,72186
77627,9016,9460,8144,8137,1954,-8395,157737,72253
77767,8440,13120,6584,7667,341,-10321,157924,72364
77907,4864,15508,5948,6438,-421,-9860,158157,72331
78047,3384,15716,5184,3816,-1322,-6417,158132,72317
78189,3604,15484,4164,64,-639,-253,157824,72174
78329,3700,15508,4068,-831,1679,3726,157799,72204
78469,4380,15464,3456,-1404,4685,7043,157718,72335
78609,4912,16856,2944,-1786,5286,7827,157619,72279
78749,4776,13296,3056,-498,3163,5541,157833,72336
78891,7396,14908,4464,-3003,-1566,2769,157791,72269
79031,8724,12640,5672,-2510,-2914,1765,157725,72222
79171,7240,12532,5520,-1247,-2002,-1961,157691,72334
79311,5444,12760,4572,-1789,-1233,-5924,157892,72354
79451,4904,15256,4416,-1055,-5014,-10926,158009,72387
79593,5300,15184,5196,790,-2369,-8870,157898,72299
79733,2784,14608,5848,1048,-4409,-8121,157696,72216
79873,1744,14536,5608,-612,-6538,-5326,157892,72432
80013,3104,15256,5548,-2139,-6464,1260,157843,72384
80153,3360,14936,5924,-4268,-5645,4242,157866,72372
80295,3456,14252,6572,-3284,-2195,6573,157681,72282
80435,5056,14172,7380,-3263,4888,9667,157566,72268
81039,6852,12764,8568,-4064,1676,5718,0,0
81427,8148,11628,7408,-1003,-7191,-12247,0,72499
81557,5732,12980,9456,149,81,-2165,158222,72520
81699,4524,13976,8184,-2197,-3524,169,158646,72573
81839,6980,13132,8732,-2329,-2627,5128,158389,72480
81979,6544,11892,9828,-5836,-7072,6695,158520,72652
82119,9960,10140,10100,-10394,-6583,6857,158273,72501
82259,11264,7104,7696,-12724,-5252,5602,158287,72466
82401,10924,4312,5756,-10862,-4909,810,158312,72431
82541,12004,4780,5248,-4378,-2913,-8783,158488,72446
82681,13504,5620,5800,-1634,-776,-14593,158427,72617
82821,14120,8960,4684,-464,-3638,-13607,158243,72491
82961,13480,10692,5160,443,-2581,-9651,157852,72405
83103,14040,11232,3904,19,-1205,-4167,157783,72294
83243,11144,13376,5628,-672,-1610,-89,157808,72265
83383,10836,11828,5008,-1827,5357,6673,157968,72467
83523,10292,12200,4988,-4171,3195,8106,157755,72394
83663,10720,9344,7700,-2253,3288,7709,157923,72424
83805,9860,5556,8768,-375,4010,4837,157651,72275
83945,8280,5300,7844,2237,426,-1806,158265,72429
84085,10904,8188,8052,5573,1638,-6510,158068,72506
84689,10668,10004,6588,4505,2274,-6685,0,0
84827,11980,9604,7728,-791,6531,13131,157269,72319
84967,13744,9304,8356,-2953,4162,13299,157018,72236
85107,10856,5908,7572,-787,6479,12117,157133,72213
85249,9164,3852,9256,-672,4907,7090,157273,72251
85389,9948,2220,11352,-973,1996,3519,157224,72240
85529,10412,1184,13976,-2292,5599,4981,156487,72177
85669,6472,-1244,12492,-1580,6149,6384,155875,72087
85809,6352,-1420,14148,861,2627,6525,156132,72164
85951,5496,-2172,13688,1350,551,4708,156549,72294
86091,7320,-1788,13628,4231,313,5579,156881,72400
86231,4756,-1900,14620,419,2280,8976,156766,72416
86371,5364,-3424,13252,-1080,-3860,10473,157009,72417
86511,6916,-5116,12108,3729,-12989,6957,157144,72394
86653,10220,-3580,11404,8695,-5331,6789,157373,72411
86793,12728,-3676,12604,7941,-3585,9548,157168,72382
86933,10528,-3788,9296,10346,2565,14709,156935,72363
87073,6756,2704,9180,13839,-1184,271,156995,72340
87213,10584,10036,10256,12934,-7801,-12187,158156,72558
87355,9028,11424,9540,9463,2809,-15520,158586,72648
87495,7016,15408,8872,7250,525,-13520,158874,72706
87635,4864,13372,6476,2976,298,-6285,158748,72697
87775,3568,14552,6232,3559,4142,-4152,158738,72632
87915,2740,14684,5728,-164,-299,631,158408,72573
88057,4076,15820,7148,-2348,2014,3690,158123,72507
88197,4732,14280,5640,-4550,-45,6487,158201,72534
88337,4776,15148,4788,-214,5799,7136,158357,72716
88477,6468,14568,6140,-1204,6,5670,158440,72605
88617,7064,12004,5536,-1536,-2786,4376,158487,72632
88759,7460,12332,6280,-1276,-981,-672,158695,72687
88899,7636,13000,6256,-649,-3085,-6049,158684,72648
89039,6096,14004,5484,406,-1992,-8027,158526,72805
89179,4524,14508,4948,-513,-5193,-8982,158696,72732
89319,4280,15152,5704,3269,-1743,-9365,158622,72701
89461,2740,15056,6100,1987,-2772,-7035,158744,72685
89601,2260,14332,5636,-947,-3427,-2376,158506,72611
89741,2864,15760,4972,-1731,-3166,-197,158494,72782
89881,2324,14992,4792,-1473,485,2980,158603,72766
90021,2736,14724,5256,-1080,2073,5028,158571,72739
90163,5000,17384,6052,-2471,3529,6296,158349,72645
90303,4488,13168,5500,-4472,-3004,4942,158573,72710
90443,5692,12464,7540,-4724,-1540,2155,158490,72809
90583,6144,14856,8396,-6908,-9101,-4182,158668,72837
90723,6676,10584,7628,-6223,-7670,-5248,158524,72765
90863,5960,11436,8524,-8987,-7727,-7403,159041,72865
91005,7536,11572,9432,-10690,-9597,-8883,159355,72928
91145,6968,8068,8104,-5404,-6305,-8899,159465,72983
91285,7136,10032,8860,1107,-3287,-9205,159406,73031
91425,6324,12140,9576,2316,-296,-6122,159327,72941
91565,6084,11004,8860,740,-3498,-3437,159118,72801
91707,6296,12644,8844,36,-1543,-335,159064,72823
91847,7608,13104,8324,-1252,327,3243,158503,72688
91987,9228,12624,7768,-770,591,5884,158299,72719
92127,7368,9964,7452,-302,585,8292,158458,72652
92267,8464,9912,8444,1123,1877,3564,158622,72705
92409,7784,10804,8732,2173,51,-1668,158557,72690
92549,6212,10368,7852,5263,6220,-5202,158640,72675
92689,6088,14672,7816,3586,3718,-7460,158899,72906
92829,3552,12800,7128,3461,4051,-6310,158744,72714
92969,1844,13888,5812,4294,7866,-2797,158488,72668
93111,3368,15488,4448,3419,4267,3723,158337,72593
93251,5704,14596,3672,2757,10198,8999,157998,72470
93391,4260,16636,3820,-879,7095,7087,158056,72645
93531,6608,14208,4360,-427,7783,9371,158000,72594
93671,6160,14268,4568,-147,9032,5727,158378,72680
93813,6052,14632,5084,-1247,4359,2418,158610,72651
93953,4472,13164,4904,946,1654,-441,158901,72747
94093,3016,15120,5376,3297,4046,-5704,158815,72840
94233,3112,13876,6684,1838,-1368,-4938,158790,72797
94373,1920,13916,7752,2963,792,-4646,158847,72783
94515,3296,13832,6536,2246,1894,-2669,158728,72680
94655,2952,14772,5072,168,4655,3669,158513,72613
94795,3916,15792,3576,-958,5724,6358,158571,72754
94935,3052,15088,3664,-666,3117,7426,158747,72808
95075,6036,15176,5076,-377,7851,4811,158765,72702
95215,6280,14796,5360,-3868,194,4189,158764,72625
95357,6536,13456,4996,-3498,1257,4498,158987,72710
95497,7104,11948,5996,-1984,-1402,1486,159058,72772
95637,4668,10892,6160,1428,4275,-1754,159274,72885
95777,5436,15704,6948,2744,-724,-4827,159307,72842
95917,3880,12540,6600,4172,-1463,-6577,159245,72758
96059,4876,14560,6864,4313,-3871,-7338,159287,72762
96199,3516,14796,6348,1709,-1094,-4260,159282,72761
96339,3656,14636,5216,-300,-3472,-1353,159039,72821
96479,3580,15716,4904,-1359,-887,1956,159106,72743
96619,3964,15320,4204,-1539,293,5462,158950,72734
96761,4284,16744,4288,-1594,5805,7382,159249,72828
96901,4252,15016,3976,-1841,-1775,5031,159049,72730
97041,6392,12984,4608,-263,-1587,3585,159216,72937
97181,5164,13500,4708,-1657,-1276,-605,159301,72878
97321,6172,14868,5040,459,-3172,-6127,159326,72886
97463,4660,14664,4276,1027,1237,-6923,159225,72825
97603,2972,14576,3436,-461,-5169,-6642,159482,72915
97743,2604,17144,4748,1471,-2062,-6317,159468,72996
97883,2244,13652,4860,1301,24,-3855,159519,72969
98023,1836,15876,5216,-605,-1964,-2443,159446,72937
98165,2912,14336,4704,-1318,-1551,2136,159290,72868
98305,1864,15652,4548,-2231,-454,5015,159496,72882
98445,2484,15168,3764,-1372,726,5393,159444,72944
98585,3664,16568,3952,767,4834,3784,159426,73017
98725,4248,13924,3788,972,-67,1950,159420,72909
98865,4612,15356,4344,-1380,638,2226,159551,72912
99007,5888,13420,4440,-105,-1558,410,159470,72898
99147,4568,14496,4084,-418,-686,-378,159526,72951
99287,4068,15220,3420,582,-1273,-3645,159581,73058
99427,2736,15884,3400,673,-2763,-5816,159681,72997
99567,2856,15556,3704,770,-2086,-6602,159578,72961
99709,3276,15456,4152,-447,-1755,-4124,159537,72948
99849,3220,13852,4184,766,2112,116,159445,72864
99989,3044,15656,4548,-990,8917,5356,159469,72979
100129,2588,16100,5440,-3690,6938,7256,159315,72930
100269,2216,15516,6124,-4182,603,6622,159462,72963
100411,3764,13628,5756,-2403,2675,5063,159613,72891
100551,4820,17020,5172,1114,-209,1375,159655,72927
100691,2780,11052,4612,-819,3299,3900,159575,73009
100831,4468,15076,5628,2108,-4570,-2591,159583,73015
100971,7596,16784,5188,4185,489,-6606,159424,72961
101111,5452,14568,4040,1082,-11151,-7460,159368,72927
101253,4540,14868,3956,1754,-2245,-7646,159467,72960
101393,4652,16356,4144,618,-5562,-6200,159376,72982
101533,3520,13876,4904,-455,2385,3002,159293,73035
101673,2116,16568,4916,-4160,8554,6781,159510,73042
101813,2812,15788,5784,-7127,726,8711,159536,73002
101955,4544,13048,6768,-3549,1691,6080,159586,73014
102095,4908,12796,7648,-2320,2312,4169,159789,73033
102235,4636,13244,7132,-2077,-870,2996,159736,73153
102375,5160,11344,6644,1149,-3806,-1443,159629,73034
102515,5304,12140,6696,2879,-591,-1638,159697,73084
102657,6804,12784,5860,4182,-2279,-4412,159812,73076
102797,7132,14092,5112,4123,-2678,-5833,159839,73076
102937,5600,16104,4248,2741,-1114,-7074,159711,73170
103077,4600,15196,3292,1122,-5639,-5020,159779,73161
103217,5060,15784,3752,891,1625,-2406,159795,73155
103359,5672,14896,3892,990,2801,-936,159714,73062
103499,4260,16012,3652,-2279,6017,4345,159772,73052
103639,3460,16996,3428,-4388,3984,6312,159840,73160
103779,3860,14292,3988,-4649,-1680,6728,159955,73223
103919,5824,15584,6696,-3112,-59,4837,159927,73114
104059,4904,11036,6440,-2962,606,5267,160044,73102
104201,5420,12376,6260,-27,1361,-386,160236,73211
104341,4452,12860,5904,1787,745,-4020,160076,73162
104481,3928,15516,4836,2128,-314,-4792,160144,73272
104621,5816,15376,3944,2647,-1942,-6843,159961,73169
104761,4552,15472,3344,4375,-3637,-8397,160041,73194
104903,4124,15552,3520,2620,-3605,-6073,160191,73222
105043,3224,16516,3536,-969,-2807,-2336,160163,73170
105183,3788,16092,3592,-1819,-3757,1952,159999,73285
105323,3312,14244,4332,-697,2629,2363,160054,73246
105463,1184,15640,3716,-3958,1433,6404,160184,73283
105605,4856,14404,5060,-3195,1057,9319,160136,73181
105745,4420,14340,5048,-1327,900,1652,160174,73228
105885,5316,13292,5108,-1074,-2751,996,160186,73301
106025,6444,15324,5440,1908,121,-2269,160267,73321
106165,4968,14116,4628,356,109,-2262,160358,73284
106305,4920,14684,4072,502,-1200,-5928,160244,73252
106447,4968,16136,3712,1409,-604,-5662,160370,73243
106587,4300,16984,3328,234,-2110,-3498,160221,73311
106727,3784,13432,3228,657,-426,-2618,160272,73351
106867,2140,16916,3280,-1121,-2502,-2361,160326,73310
107007,2988,14284,3620,66,229,-565,160388,73246
107149,2004,15932,4140,-957,1666,1880,160453,73304
107289,2628,14184,4588,-2453,-211,4225,160402,73264
107429,4504,15340,5300,667,2444,2814,160259,73366
107569,3384,15340,4576,-2101,1648,6038,160512,73312
107709,4604,15964,4548,519,3546,4482,160686,73329
107851,2532,13428,3344,818,1950,1511,160653,73298
107991,4276,16480,4328,2104,2536,1182,160885,73333
108131,4368,15700,4464,2581,2381,-5423,160751,73427
108271,4424,14936,3552,1873,-3210,-7071,160723,73372
108411,3508,15008,3440,342,-5853,-5860,160663,73384
108553,4080,17304,4232,-746,-2955,-3571,160599,73290
108693,3296,13292,4020,-1158,-1255,1313,160801,73373
108833,2968,15496,3808,-624,1672,1465,160707,73439
108973,3068,14576,4548,-1033,4546,4147,160749,73432
109113,3600,18148,6060,-1762,3172,6147,160710,73385
109255,2932,13476,5372,-1275,6833,5799,160749,73358
109395,2356,15528,5152,-1755,231,3189,160961,73373
109535,3264,14396,4812,405,809,1524,160851,73460
109675,3928,14108,4844,427,-1215,-1051,161068,73537
109815,4604,13908,4752,2536,17,-3107,160938,73428
109955,4480,15352,3964,2441,-312,-3964,160949,73388
110097,4112,16880,3540,1290,-1267,-4808,160980,73466
110237,4308,15568,3448,1665,-5498,-5861,160930,73454
110377,3252,14956,3860,170,-2744,-3090,160914,73521
110517,3176,17040,3860,-808,-1931,-3241,160776,73432
110657,3312,14224,4220,-839,4466,2408,160862,73440
110799,3620,14524,4176,-2404,5323,5345,160988,73452
110939,3136,17124,5504,-2654,5639,6286,160965,73431
111079,1884,14372,5224,-3273,3916,5880,160894,73536
111219,3908,13852,5608,-860,1727,2833,160966,73432
111359,2856,14416,6088,669,1747,574,160977,73461
111501,2448,15012,5716,257,-1486,-796,161101,73502
111641,2640,14608,4508,576,-2370,-2044,160971,73450
111781,3676,15424,3884,2138,-3794,-5819,160902,73592
111921,4312,16876,3888,2661,-2616,-6795,160898,73469
112061,3188,15172,3304,1949,-8438,-4610,160870,73455
112203,2768,14836,3912,884,434,-2163,160891,73425
112343,2128,17040,3460,-3629,-7067,137,160928,73419
112483,3316,14036,3968,-681,2965,1885,160922,73565
112623,2392,15756,4400,-1811,2280,2791,160916,73480
112763,1260,16256,4136,-2765,3310,5303,160965,73501
112905,2384,15684,4668,-1111,-682,3136,160938,73432
113045,2876,13668,5340,-69,633,1147,161138,73468
113185,3652,14684,5868,631,536,-34,161112,73546
113325,3472,14720,5040,-100,-641,-1519,161126,73492
113465,2892,15012,4212,-724,-2981,-3142,161107,73502
113607,3032,15096,4020,944,-2559,-3699,161093,73447
113747,2912,15304,4044,1233,-2688,-3799,161132,73453
113887,2964,17028,3816,1173,-1584,-4759,161032,73551
114027,2568,14588,3988,1102,718,-1279,161009,73471
114167,1060,16796,3328,-1594,1158,956,160975,73496
114309,2012,14936,3496,-256,2378,2438,160984,73438
114449,1600,15260,3408,-3,2514,2191,161134,73461
114589,2928,15224,3804,-111,3829,2077,160993,73500
114729,3172,15624,4224,-952,5431,2008,160818,73449
114869,2884,16200,4228,-3024,2622,4867,160892,73430
115011,3092,14244,3988,-3077,1794,5016,160970,73403
115151,1832,13856,3916,-759,-2896,573,161081,73399
115291,2308,15160,4884,567,3022,357,161140,73518
115431,3500,13956,5800,1221,-3990,-3976,160996,73450
115571,4320,14848,5880,2362,-747,-5974,160974,73445
115713,3412,15204,5016,1643,-3781,-5566,160976,73363
115853,3300,15016,5004,921,-2716,-2302,161048,73408
115993,2304,16688,5000,411,1365,-375,160853,73487
116133,3736,13196,4112,-1954,2685,3879,160898,73445
116273,4360,17012,4520,-2197,3294,5258,160800,73410
116415,3724,15400,3524,-3513,2870,9535,160995,73381
116555,1432,15096,3736,1865,1730,-911,161029,73450
116695,3140,14776,4384,3804,1193,-6826,161082,73555
116835,4244,17268,4168,2522,-6379,-9877,160931,73488
116975,4496,13652,4212,1432,-4906,-4891,160818,73391
117117,804,14356,4900,-1768,1635,1152,160778,73388
117257,4168,16808,5712,-199,6441,2876,160900,73374
117397,2640,15548,5676,-4072,2189,6694,160892,73473
117537,4180,15324,5376,-3252,-255,6965,160903,73506
117677,3404,13840,5432,-1793,2227,5617,160914,73428
117817,4124,14240,5548,-71,1149,2620,160998,73409
117959,4756,14072,6304,589,279,387,161094,73450
118099,5784,13520,6232,324,-173,-247,160946,73446
118239,5744,14172,5608,199,-28,-515,160788,73492
118379,5668,14360,5000,-451,1080,866,160832,73425
118519,4504,15356,4204,212,-2100,-585,160834,73392
118661,3784,13464,2428,4440,1561,-5584,161087,73512
118801,3972,16740,3864,5507,-1660,-11846,160986,73504
118941,5296,16168,4812,34,-7335,-5274,160860,73507
119081,5272,16624,4624,-1644,-2706,418,160732,73446
119221,3672,14964,4060,-3264,352,5550,160882,73480
119363,2736,16228,3996,-3092,660,4142,160870,73494
119503,2772,14608,4768,-3239,2419,5137,161052,73493
119643,3976,16128,5028,-4238,-5030,2201,161122,73622
119783,3960,13128,5052,1107,2642,-142,161109,73505
119923,3328,13732,5364,891,-2327,-3053,161103,73528
120065,3848,15180,5080,3264,-832,-4983,161168,73551
120205,2788,15284,4752,2568,-2448,-7988,161208,73516
120345,3340,15700,4216,262,-5738,-5905,161148,73643
120485,2876,14976,4052,-539,-2514,-605,160960,73544
120625,1132,15736,3692,-1385,1134,2123,161118,73582
120767,1916,16512,3272,-667,3357,2958,161140,73536
120907,1664,15936,3108,-1439,1535,3748,161321,73573
121047,3140,15232,3764,-2321,-2004,4897,161059,73636
121187,3688,15280,4072,-1376,-1061,1646,161179,73649
121327,3508,15328,4748,1489,3375,-778,161179,73615
121467,3024,14252,4120,469,1893,-481,161318,73595
121609,2896,13812,4088,2492,254,-2762,161314,73559
121749,2588,15748,4812,3785,883,-5615,161264,73648
121889,3116,15216,4800,2861,285,-5545,161243,73695
122029,2284,15916,5156,-408,3837,856,161143,73592
122169,2696,16900,3876,-4361,911,7999,160992,73518
122311,2152,16004,3396,-6066,3819,11669,161272,73660
122451,3524,12748,3300,-690,2036,3667,161358,73650
122591,3996,15168,4240,3401,4380,-5664,161547,73757
122731,4192,15464,4152,2513,-4662,-6282,161219,73593
122871,3004,16424,3956,1139,-7749,-4746,161176,73619
123013,3672,15280,3808,570,-5518,-6806,161293,73632
123153,4100,18368,4300,93,-1300,-5422,161268,73601
123293,3832,13336,4320,-561,4735,2840,161111,73671
123433,3080,15536,4624,-2716,2222,4868,161079,73630
123573,2632,14212,4004,-2975,4795,6749,161262,73665
123715,3768,17768,5740,-552,6015,5265,161177,73567
123855,3712,13104,6532,-1790,5924,6898,161216,73574
123995,4224,14440,6656,-1029,894,3228,161209,73694
124135,3476,13060,5776,-1147,699,1529,161413,73704
124275,3648,13580,5140,1474,-2974,-3369,161450,73704
124417,2856,14744,4816,3664,408,-5395,161285,73642
124557,5568,15420,4128,3755,244,-8405,161377,73650
124697,3420,19064,3732,3289,-5593,-6773,161242,73719
124837,2692,14140,3540,2013,-158,-2579,161311,73738
124977,3900,15336,3952,-1505,-1466,-568,161290,73663
125117,3372,16816,3836,-2924,-2855,3962,161101,73614
125259,2596,14844,3716,-2333,5237,6731,161368,73644
125399,1156,16232,3504,-4101,96,4956,161368,73715
125539,-1556,15576,1868,-1493,-600,279,161620,73813
125679,1328,17028,3904,2750,-2541,-4903,161459,73714
125819,2136,14748,4780,3258,-2361,-7442,161466,73651
125961,2552,15452,4476,1921,-6410,-7019,161534,73727
126101,2316,16232,4852,275,-3093,-2096,161411,73673
126241,2888,14532,3524,-1384,-2341,1987,161297,73781
126381,952,16728,3732,-1936,-578,5235,161339,73674
126521,912,15520,3224,-1550,3508,6354,161385,73692
126663,2328,16740,3296,-1000,4488,2750,161451,73697
126803,2264,14440,3012,-625,1535,1523,161367,73629
126943,2980,15700,3888,-1490,384,1845,161473,73794
127083,3520,13288,4192,84,-3177,486,161373,73697
127223,2952,14520,4996,1026,620,-758,161525,73745
127365,2700,14976,4480,231,-661,-1055,161325,73658
127505,2312,17032,3408,324,-74,-3608,161460,73715
127645,2788,14948,3576,-294,-4566,-3600,161437,73788
127785,2804,15524,4208,-788,-4262,-4211,161452,73764
127925,3296,16880,4776,499,1931,-1520,161303,73703
128067,2732,12672,4384,706,7751,3365,161282,73680
128207,2564,18856,4868,-1970,8719,1753,161438,73681
128347,3772,14384,4992,-3914,-3132,8711,161383,73714
128487,3284,14284,6368,-1208,2642,5169,161231,73736
128627,3956,13292,5968,-697,2666,3721,161372,73688
128767,3688,15852,6112,552,3353,1698,161336,73626
128909,1672,14124,5160,53,3049,2848,161487,73749
129049,3276,12884,4592,1025,-2001,-1517,161590,73778
129189,5460,14920,5076,4306,-1049,-6512,161457,73787
129329,5004,14540,5128,1731,-4983,-5260,161371,73695
129469,5228,16352,4640,461,-4212,-4539,161227,73682
129611,4372,14156,4424,-322,-3248,-1885,161389,73747
129751,3776,15080,4516,-1322,-2223,-2143,161398,73712
129891,3712,15672,4888,-2426,-1025,1177,161415,73825
130031,3840,15716,6092,-5339,1218,6714,161181,73721
130171,5880,15220,6296,-12075,20706,16381,159236,73371
130313,3912,9784,9800,-12332,9545,11708,158219,73098
130453,3372,4792,13788,-7803,5018,9345,158286,73080
130593,3024,1928,13868,-5517,1159,5572,158225,73203
130733,3828,1308,14292,-3114,-2470,3234,158291,73236
130873,4384,464,14028,633,-3902,986,158569,73243
131013,4836,676,14132,424,-1116,595,158680,73183
131155,3508,1144,12384,5500,-2090,-4344,158827,73222
131295,3812,5040,14752,9000,-1209,-7036,158651,73234
131435,4124,8008,11632,8004,-4026,-7876,158774,73298
131575,5036,13736,9592,7938,-8385,-9680,159018,73283
131715,5824,14920,7572,8188,-26,-7403,159032,73269
131857,3424,14172,5744,8553,1113,-7043,158991,73225
131997,3036,15984,5856,1189,-2371,-4048,158641,73069
132137,4392,14368,5412,-1932,-3015,535,158321,73157
132277,3348,14904,5928,-1362,4037,4080,158221,73062
132417,2340,15408,5336,-3831,-882,4585,158744,73222
132559,3508,14068,4932,-3598,-1122,4435,159512,73330
132699,3332,14420,5988,-3631,-760,2721,160264,73503
132839,4160,14180,7148,545,-1834,-1325,160253,73585
132979,4208,12732,6856,614,878,-1032,160404,73662
133119,4204,14196,6856,2094,177,-2430,160473,73603
133259,4056,12948,6008,2049,-8,-2694,160646,73589
133401,3020,15372,5628,1341,-3780,-3488,160769,73669
133541,2784,15164,4492,2198,-2029,-3493,160687,73676
133681,2268,14800,4516,2718,-1973,-3678,160710,73736
133821,2500,17316,4016,1136,2540,-2373,160847,73690
133961,3124,14152,3372,-1224,-1006,1990,160716,73634
134103,2216,16564,3872,-2283,2434,3628,160891,73718
134243,3280,15040,4280,-1560,1085,4011,160825,73593
134383,3276,14836,4544,-1508,3272,4188,160814,73783
134523,4216,15412,4920,-958,2223,3091,160747,73610
134663,5008,14412,5140,-1405,751,2843,160633,73596
134805,6052,12860,6380,-501,758,506,160685,73573
134945,6728,13600,6188,946,2177,-326,160515,73487
135085,4720,13640,4636,970,3837,1489,160708,73711
135225,4452,14952,4992,-1985,-1279,613,160742,73622
135365,4016,14336,4344,-2376,-3063,-1248,160852,73636
135507,4172,16996,4728,2167,-1909,-7370,161015,73668
135647,4008,13660,5728,4574,3711,-5464,161048,73601
135787,4668,15440,6408,947,-5800,-4904,160788,73713
135927,4472,13700,5924,-989,-2921,-301,160729,73596
136067,5000,14436,6092,-2344,-724,2068,160660,73552
136209,4160,15168,5840,-2650,2172,6491,160670,73540
136349,4068,14212,5312,-1232,3565,5249,160810,73516
136489,3984,15828,5792,39,2819,3738,160779,73707
136629,3740,11952,4412,-609,2425,3333,160816,73588
136769,4592,13820,5928,-347,1748,476,160964,73614
136911,5600,14096,5328,2620,-631,-2179,160805,73575
137051,5340,14312,5756,5467,3186,-3735,160861,73547
137191,4220,14936,5284,2682,-3579,-4123,161003,73721
137331,4268,15736,4208,-542,-10046,-6079,160929,73605
137471,4344,15568,4900,153,-4912,-5027,160815,73595
137613,3720,14712,4796,-229,3017,-268,160948,73606
137753,2808,13932,4468,-3568,2893,2761,160977,73550
137893,3756,13900,5556,-3431,1697,6347,161031,73728
138033,4476,15308,7188,-1760,3908,5880,160733,73531
138173,3880,14144,5632,-2554,5003,4622,161079,73634
138315,3780,13592,5604,72,-75,1186,161137,73624
138455,2596,14120,5792,1202,-1020,-1458,161121,73577
138595,3068,14668,5740,1349,-4363,-4987,161057,73721
138735,4768,14724,4580,-212,-10052,-5261,160906,73572
138875,5176,14844,4392,1901,-2379,-6160,160777,73557
139017,3432,16572,4676,2214,-834,-4929,160766,73543
139157,3172,14156,4240,389,1206,576,160781,73472
139297,3524,15936,4200,-423,3892,103,160764,73633
139437,3960,14868,4052,-2007,913,4096,160751,73540
139577,2980,15348,4576,-1660,2659,4119,160686,73537
139719,2912,15144,4700,-2635,2774,4255,160848,73592
139859,2712,14936,4912,-3731,-1143,3001,160974,73572
139999,3120,15576,5044,-7,63,-337,160971,73722
140139,2836,13248,4648,2108,-1360,-3338,161003,73622
140279,3428,15980,5740,4718,-156,-7517,161039,73649
140421,2860,15672,4980,1889,-4123,-5925,160923,73553
140561,3112,15180,4272,-673,-4848,-2851,160929,73535
140701,3716,15000,4120,-1050,-715,1276,160708,73620
140841,2352,16752,4240,-2467,2227,5253,160852,73631
140981,2108,15476,3772,-2587,1322,4664,160972,73673
141123,3536,14188,4128,-1260,1066,2421,161057,73632
141263,3216,13968,4784,318,-677,-1252,161038,73599
141403,3644,14784,5416,566,177,19,161037,73722
141543,2948,14996,4940,796,765,-683,161051,73750
141683,2996,14668,3736,2071,-405,-1826,161155,73692
141823,2828,17096,3408,1846,97,-5006,161100,73667
141965,3208,14952,3760,1576,-1517,-3934,161098,73695
142105,2280,16164,4020,-905,-1317,-1936,161115,73719
142245,3676,12904,3268,1184,4850,899,160919,73704
142385,1004,14560,3992,-358,5542,3846,161057,73668
142525,1840,16796,4720,-2574,2635,2988,161045,73672
142667,2540,14596,5232,-2248,896,4924,161093,73674
142807,2096,15348,5356,-2897,2180,3720,161258,73649
142947,2892,15672,4700,-2060,-2317,2851,161064,73801
143087,2276,14460,4500,507,898,-32,161224,73741
143227,3028,14456,4776,845,-333,-1504,161434,73787
143369,4324,14332,4832,3632,3089,-3306,161153,73647
143509,4160,14560,4980,2345,671,-757,161355,73738
143649,3304,15844,4776,1287,-1460,-4116,161277,73842
143789,4664,13940,4120,-855,-6578,-2996,161380,73875
143929,2584,15964,4048,-2469,-6683,-1943,161179,73760
144069,2828,14248,4336,636,-1842,-1955,161355,73740
144211,1976,15412,4992,618,6230,-100,161492,73816
144351,2596,15500,4444,-2057,2832,1752,161467,73830
144491,2036,13920,4964,-2820,922,3686,161404,73902
144631,2732,15056,5972,-586,3844,2620,161304,73784
144771,2860,14352,5324,-2319,982,3266,161479,73848
144913,3276,14912,5272,-846,239,2323,161382,73749
145053,3720,13780,5708,639,1155,-274,161487,73811
145193,4392,14404,6368,319,346,-341,161363,73863
145333,3988,14208,5628,-70,164,-770,161474,73881
145473,3816,14248,5804,346,-1009,-879,161535,73824
145613,2588,14896,5880,285,-4278,-2165,161641,73788
145755,3040,14428,5676,1187,86,-2453,161505,73840
145895,3468,15360,4616,2292,-2158,-4340,161602,73864
146035,3128,14940,5004,1709,-458,-3753,161652,73953
146175,1916,15976,4460,-1286,-3242,188,161569,73858
146315,2592,14628,3836,-849,984,1706,161465,73836
146457,2672,17760,3748,-1529,3368,3121,161494,73793
146597,2460,14608,3144,-2144,-1906,4725,161688,73884
146737,4440,13412,3596,-704,802,2476,161642,73932
146877,5812,15332,4304,-1585,-2431,1897,161572,73927
147017,6420,14184,4588,-1038,-2338,-476,161341,73791
147157,6980,15908,5688,486,-1234,-2977,161311,73731
147299,6172,12900,4944,1235,3269,-2334,161427,73817
147439,4232,15608,4420,-887,-3308,-2227,161450,73850
147579,2200,15060,3428,-1054,1218,-2106,161442,73933
147719,3168,15148,2992,518,-2051,-3493,161532,73875
147859,3064,16328,4028,928,-228,-3268,161494,73875
148001,2468,14848,4028,698,-1644,-3305,161624,73879
148141,1208,14136,3972,-639,-4549,-2996,161738,73871
148281,2188,16184,4368,90,-2168,-1726,161551,73932
148421,2372,15628,4044,-459,1255,937,161532,73893
148561,1140,15492,4744,-1093,-488,2858,161578,73908
148703,2568,14372,4068,-2247,807,3831,161608,73824
148843,3348,17356,3712,-956,1122,2497,161613,73882
148983,2944,14536,4228,104,3970,3302,161610,73974
149123,3368,15724,4516,-2158,-1903,731,161726,73994
149263,3644,13964,4992,1318,2117,9,161852,73954
149403,2592,14672,5384,155,782,-472,161716,73914
149545,3352,14224,5008,470,-1201,-438,161843,73940
149685,2520,14836,3992,3823,104,-3003,161774,73991
149825,648,20304,2468,1470,4782,-4041,161971,74070
149965,1908,14916,1980,548,-3007,-2378,161782,73940
150105,1448,17628,3204,272,-2580,-4535,161753,73968
150247,2736,13328,3688,385,742,-452,161674,73888
150387,1512,16376,3692,-2361,-604,3768,161628,73832
150527,2260,14672,4328,-918,9162,5289,161707,73996
150667,2644,17140,5140,-1800,4534,3289,161374,73857
150807,3212,14580,5180,-2625,2889,5751,161459,73859
150949,2148,15704,5120,-2143,3562,5394,161580,73786
151089,1928,12888,4144,8,-81,3060,161680,73844
151229,3980,14016,4000,1574,3702,-1582,161716,73948
151369,2468,13012,4496,2597,-2,-93,161668,73956
151509,3672,17232,3860,3307,-3126,-5143,161689,73879
151649,3252,16152,3992,1803,-4738,-4530,161690,73861
151791,3944,14856,3388,-18,-6739,-5978,161629,73856
151931,3900,16620,3732,334,-5340,-4719,161488,73859
152071,3300,14888,4696,-77,7384,2086,161452,73933
152211,2008,16180,4964,-4455,2542,4857,161412,73870
152351,1940,14808,5268,-5819,1746,5667,161497,73835
152493,3076,14796,6244,-2561,4089,4732,161411,73861
152633,2560,13548,6300,-2307,2243,3114,161802,74009
152773,3648,14528,6216,-357,-1076,1481,161729,73998
152913,3040,13808,6972,1362,2256,293,161492,73898
153053,4188,13304,6684,420,-1630,-1850,161704,73862
153195,4224,13728,5024,815,-2580,-1004,161640,73911
153335,3652,14120,4932,3391,101,-2361,161732,73979
153475,3844,16976,5232,3037,-4387,-5470,161618,74034
153615,5324,13640,4808,614,-13190,-6434,161557,73932
153755,4360,16304,5472,-183,-2294,-4888,161654,73904
153897,3732,14980,5024,-1653,-731,-873,161800,73972
154037,3096,14812,4700,-2133,1279,1862,161588,74001
154177,3132,14624,5208,-2909,4619,6815,161704,74062
154317,3552,16008,4788,-132,7667,7030,161580,73968
154457,2020,14092,5388,-214,6586,6630,161891,73962
154599,2860,13988,5836,-411,2305,3687,161891,73995
154739,3152,14672,5928,1206,3401,-250,161941,74063
154879,2912,14256,4908,975,-1526,-1543,161951,74083
155019,2808,15376,4896,1160,-4575,-4032,161847,74043
155159,3936,15136,4264,3099,-4851,-6715,161833,73985
155301,3980,17060,4208,3276,-2545,-7401,161978,74072
155441,2776,14884,3572,1999,-4472,-4189,161811,74054
155581,2348,14368,3628,-1442,202,1703,161687,74068
155721,2404,17824,3644,-4655,-2032,4699,161717,74036
155861,2696,14524,3784,-2949,5580,8388,161860,74007
156003,1580,16148,3168,-3217,-1948,3662,162076,74100
156143,1424,15932,3784,-451,-905,-466,162017,74150
156283,2044,15232,4912,2720,-2813,-7424,162085,74227
156423,2524,14264,4880,2130,-937,-7726,162069,74128
156563,2736,17296,5384,466,-4096,-5136,162056,74055
156705,2752,14412,4868,-1779,1195,855,161916,74085
156845,2560,14608,5172,-2029,4469,4412,161919,74133
156985,1664,15900,5132,-2513,3391,6220,162004,74190
157125,2624,14300,5732,684,7187,2896,162120,74145
157265,2004,18276,4956,-1401,3908,5816,161882,74064
157407,2072,11044,3980,-1857,-2443,3731,162113,74097
157547,3244,16456,4756,1468,457,-505,162257,74224
157687,5016,15816,4968,3772,218,-2778,162155,74248
157827,3948,14168,4424,759,-10350,-5865,161936,74106
157967,4252,15264,4412,868,-5596,-7608,162029,74102
158109,4436,15604,4576,-218,-5734,-4763,162064,74106
158249,3276,14884,4628,-106,440,588,161984,74182
158389,2112,15244,4344,-1321,4480,3042,162005,74222
158529,3992,16308,4444,-2119,5162,5225,161983,74167
158671,2608,13948,6196,-4211,-427,6441,162105,74129
158811,3936,13392,6024,-820,4458,4690,162103,74129
158951,3908,13540,6256,-733,3293,2462,162276,74229
159091,3916,14232,6456,360,2765,2148,162116,74256
159231,3564,13652,5544,295,63,454,162144,74190
159371,4264,13000,5288,1498,-1077,-157,162317,74155
159513,5068,13304,4916,3600,-1698,-2485,162268,74178
159653,4400,16796,5140,2134,-2330,-5483,162116,74199
159793,5956,14708,4096,1924,-4369,-4196,162110,74238
159933,3576,15772,4720,1105,-3196,-4269,162164,74176
160073,4916,14556,4448,256,95,-1178,162156,74173
160215,4384,14872,4028,-750,2075,2315,162082,74150
160355,4640,15168,4184,-993,7203,5242,162035,74134
160495,4424,15452,4460,-1709,2866,3996,162045,74246
160635,6496,12948,4824,-1315,5038,4152,162098,74142
160775,3764,17156,4444,-3055,-239,3323,161986,74135
160917,2608,14712,3556,180,3228,-15,162267,74173
161057,2840,15036,4088,54,-2515,-4729,162326,74167
161197,3756,16492,4252,204,-7742,-7506,162381,74286
161337,4368,13828,4536,1649,-7030,-6798,162076,74176
161477,3688,15028,5432,1770,-3909,-6257,162297,74246
161619,4076,15380,5868,859,-820,-2316,162093,74118
161759,2372,16084,4408,-2366,1615,3218,162199,74159
161899,2736,14948,3512,-2475,3001,7985,162096,74228
162039,3192,16360,3428,378,11688,6866,162441,74285
162179,1576,15148,3500,-1873,227,4395,162390,74213
162321,4080,13588,3084,95,689,2825,162459,74211
162461,3432,15396,3472,496,-664,-1439,162533,74171
162601,3836,14968,3996,2684,-2402,-4679,162423,74249
162741,3380,15732,3352,1071,-2436,-6554,162507,74315
162881,3668,15148,2768,-502,-6583,-5225,162472,74234
163021,2388,18232,3532,-98,-2156,-1562,162438,74204
163163,2336,13496,3664,-126,-3514,-576,162532,74240
163303,2116,16312,4268,151,-196,-969,162473,74292
163443,2600,14968,3836,-1070,1332,1177,162545,74345
163583,3192,14440,3620,-1507,1975,1058,162402,74226
163723,3848,16172,4636,-2885,3308,4740,162392,74170
163865,3456,15160,4128,-2293,3596,5755,162435,74222
164005,3336,15156,4248,15,3749,3382,162494,74249
164145,3816,15536,4620,35,2220,3052,162345,74245
164285,2592,13988,4280,-359,2927,2198,162414,74205
164425,3024,14388,4084,-282,-395,-316,162628,74261
164567,4864,15800,4384,2129,-2274,-5882,162512,74257
164707,4784,14972,4128,2548,-8386,-8557,162467,74197
164847,4604,15448,5044,841,-5590,-7638,162498,74382
164987,5344,14728,4612,-2465,-6148,-2398,162392,74263
165127,3724,14960,4584,576,1193,2018,162385,74251
165269,3360,16304,4616,-869,9902,7018,162476,74242
165409,3532,17016,5388,-3738,3742,5828,162429,74245
165549,4104,13744,6248,-3167,3953,7003,162534,74343
165689,3788,13188,7092,-2911,-153,4391,162655,74302
165829,4492,12940,6580,-153,3070,2403,162617,74321
165971,3704,13556,6336,1404,1216,49,162652,74253
166111,4656,13320,5612,2081,-645,-3016,162805,74335
166251,5852,14508,5416,2857,-2102,-3852,162699,74365
166391,5436,13172,5792,4522,704,-4242,162567,74383
166531,3928,16616,5184,1317,-5355,-6390,162606,74348
166671,4660,15496,3720,510,-3460,-4453,162630,74318
166813,4168,16356,4180,1888,82,-4589,162830,74341
166953,3472,15372,4208,749,808,-778,162629,74368
167093,3764,16120,5024,-1450,1905,3537,162697,74419
167233,3952,14856,3960,-2878,1283,5543,162672,74328
167373,4460,17160,3692,-309,9443,2965,162758,74317
167515,4840,14180,4388,-1122,199,4258,162760,74286
167655,4592,14764,4960,-2985,231,3189,162823,74289
167795,5224,14608,4564,-762,-2281,442,162800,74430
167935,2952,14404,4524,-412,3668,-1199,162941,74380
168075,3032,15396,4428,-662,-5094,-3890,162850,74393
168217,3276,14292,5008,2621,-1911,-5751,162863,74326
168357,3536,14084,5224,3719,-2466,-6803,163052,74395
168497,3032,16784,5880,2464,-1722,-3785,162869,74436
168637,3052,14452,4428,-1318,-3397,2493,162722,74408
168777,2892,16668,3904,-1756,2463,3969,162747,74391
168919,2980,15288,2932,-2542,3587,7502,162687,74316
169059,4156,16884,2932,-93,6765,3580,162782,74336
169199,4136,14112,3456,536,-218,2171,162671,74370
169339,4452,14968,4384,-1417,2245,-159,162754,74449
169479,4032,14732,4672,122,-6270,-3386,162643,74307
169619,2908,14832,4072,304,400,-3967,162822,74352
169761,3060,15560,3752,-464,-5172,-4932,162711,74348
169901,1976,17184,4676,389,-2476,-2910,162664,74403
170041,2176,13908,4760,-248,-3174,-2435,162833,74486
170181,2580,15920,4572,1246,737,-2443,162671,74373
170321,2384,15704,4504,-839,2937,980,162514,74332
170463,2636,15548,5068,-4018,1778,5430,162692,74370
170603,3372,15784,5572,-2971,1479,6843,162623,74315
170743,3016,14556,6204,-1615,4186,5372,162706,74458
170883,4056,14880,5580,-1530,119,4481,162646,74348
171023,2992,12040,4572,952,3037,2178,162767,74391
171165,3500,15708,4848,2922,-120,-2792,163030,74364
171305,5728,15088,5300,4660,-1148,-7687,162980,74379
171445,4544,15752,4552,3540,-9460,-10641,162798,74394
171585,3492,16104,4236,1031,-5190,-7932,162690,74411
171725,4672,15368,4024,-1306,-1947,-1095,162644,74342
171865,4372,14496,4000,-666,4160,4597,162628,74316
172007,2556,17040,5272,-4056,8038,9467,162801,74352
172147,3712,15788,5060,-6488,2178,10273,162668,74383
172287,4552,13640,6636,-2736,2826,6207,162820,74450
172427,4600,11552,7132,-223,2623,1940,162882,74392
172567,5892,14020,6264,1502,-2812,-159,162942,74375
172709,4436,12780,4960,4415,5146,-1106,162879,74420
172849,5744,13864,5904,3926,-4060,-4501,162892,74332
172989,6940,15544,6832,3819,3573,-4820,162721,74442
173129,4028,15000,5080,-291,-8285,-3769,162851,74397
173269,4556,15028,4260,843,-3186,-5311,162756,74382
173411,4152,14524,5228,716,-1046,-1811,162813,74343
173551,4108,15460,5368,-1455,2077,3371,162820,74334
173691,5096,15472,5200,-2167,3878,6393,162760,74433
173831,5480,13964,4880,-3239,2422,8775,162693,74386
173971,5292,15008,5440,-2316,2026,4864,162742,74401
174113,5964,11904,4904,-199,1405,2148,162951,74385
174253,5320,14244,5456,529,-545,-2780,163029,74386
174393,4352,14116,4032,2172,-1236,-4951,162773,74451
174533,4052,14296,4728,1298,-5895,-7365,162891,74487
174673,5760,16804,5320,2791,-3970,-7916,162786,74406
174813,3488,14340,4724,1965,-1026,-4337,162783,74355
174955,2840,16216,5560,496,-1958,-3343,162608,74342
175095,2816,14404,4792,-2102,836,3869,162419,74397
175235,2596,16652,4144,-3609,-152,5713,162454,74431
175375,4244,15100,3904,-5783,-1543,10067,162481,74365
175515,5952,14284,3924,-2657,-3572,3568,162426,74334
175657,7304,12060,4244,1278,-731,1472,162660,74370
175797,7648,13840,5228,1604,3772,-731,162533,74403
175937,6360,14424,4936,-107,-960,-4673,162611,74461
176077,4132,13728,4064,-1956,-2975,-6547,162571,74400
176217,4556,14996,3272,-2660,-10829,-10525,162798,74388
176359,3468,15872,4532,-236,-4793,-10364,163018,74481
176499,2776,15740,5692,671,-5630,-7758,162874,74462
176639,1028,13984,5180,-1117,-4074,-2981,162920,74526
176779,1272,15668,5760,280,-1446,-56,162884,74475
176919,152,14648,4872,-370,2394,1849,163127,74450
177061,1208,15380,4552,-633,4600,5239,163016,74465
177201,3160,16048,5204,-1012,9753,6607,162788,74470
177341,2128,15764,4840,-1502,3095,8186,162882,74511
177481,3576,14092,5504,485,7746,6345,162848,74455
177621,3648,15252,5984,-1448,1993,3973,163023,74410
177763,3328,17924,5148,388,5289,2720,162818,74445
177903,2932,12040,4152,535,-1644,42,163049,74519
178043,4068,14892,4796,4312,-1095,-5052,162983,74539
178183,2308,16460,4288,4610,-2715,-9389,162916,74485
178323,3996,15300,4332,2082,-4288,-8086,162828,74394
178465,3864,15420,3852,-1069,-6006,-4084,162896,74463
178605,2208,14296,5428,-191,2104,3539,162891,74492
178745,2360,15068,6676,-2399,11071,5008,163048,74572
178885,-912,17336,5864,-8017,4231,5091,162926,74482
179025,2916,14400,4792,-6434,4321,12328,163018,74458
179167,2828,12388,6736,-2532,-2785,7317,163238,74503
179307,3620,13056,7152,2341,2600,2051,163215,74539
179447,3864,11692,5824,4414,4185,652,163114,74552
179587,5460,14912,5812,5029,-708,-2936,163050,74485
179727,6028,15240,5220,5664,3182,-3883,163084,74440
179869,3504,15672,3872,5023,-5688,-6635,162987,74461
180009,3020,14860,4268,1039,-4398,-5076,163009,74496
180149,4400,16740,4136,-1760,-10424,-6778,162912,74530
180289,5116,13900,4556,-12,-826,156,162883,74447
180429,3376,16088,4504,-1457,5309,4585,162899,74398
180571,4912,16644,4288,-2611,3926,8395,162922,74427
180711,4900,13952,4380,-2447,2149,6630,163028,74523
180851,6368,15156,4636,-3969,-1729,4929,163183,74562
180991,6248,13200,4224,-320,-2950,1734,163218,74493
181131,4072,15448,4160,2047,5047,-3445,163429,74506
181273,3636,15076,2840,934,-5233,-4573,163343,74512
181413,2468,16224,4108,2382,-2934,-8944,163404,74583
181553,3868,16024,4072,3219,-6216,-8030,163190,74579
181693,2168,14884,4776,2951,-256,-6187,163276,74519
181833,2988,16808,5380,-313,-1668,-753,163050,74422
181975,2352,16128,3140,-3624,1067,6694,163312,74491
182115,2644,15748,2240,-2927,1268,9327,163230,74546
182255,3532,17352,2332,-1909,7407,10178,163314,74611
182395,4304,13908,2616,-553,-1551,4570,163338,74511
182535,4660,14788,3688,1087,1682,-2786,163379,74468
182677,4376,15736,3756,267,-4133,-6600,163376,74454
182817,2576,15332,2664,960,2949,-6013,163371,74532
182957,3176,14100,3160,109,-4867,-5646,163414,74588
183097,1728,17752,3968,1194,-4154,-4342,163345,74519
183237,1336,14348,3536,25,-1807,-3493,163572,74469
183379,884,16960,4580,300,-2149,-2392,163451,74491
183519,1148,14740,4228,-1785,1127,946,163346,74515
183659,1136,16920,4896,-3922,1308,4143,163385,74568
183799,2516,13844,4324,-1301,3474,3806,163269,74473
183939,2564,15948,4948,64,5574,2705,163217,74399
184081,1952,16220,4704,-2419,2539,6000,163262,74474
184221,1316,14508,3604,-1745,1862,4370,163301,74483
184361,1672,15240,3652,107,1214,4260,163397,74599
184501,4484,15720,4288,5006,1818,-6076,163178,74479
184641,3536,15992,3936,4229,-9930,-11230,163239,74499
184783,2968,15804,4088,959,-5746,-8158,163370,74521
184923,3072,16116,3976,-3092,-12308,-1657,163283,74464
185063,3060,12436,4696,2283,4854,-290,163109,74547
185203,3076,15448,4248,-2016,8300,4975,163187,74515
185343,2764,16956,4560,-4959,794,12065,163151,74504
185485,2028,14452,5192,-2460,7319,10186,163124,74417
185625,2716,14428,5696,-1962,2420,3753,163328,74480
185765,2492,15700,6368,374,4493,1671,163116,74564
185905,2340,13800,4732,450,-540,-1031,163254,74604
186045,4692,14356,3432,3548,-5586,-6184,163333,74555
186185,7076,14088,3136,6811,-3439,-8148,163080,74426
186327,3608,17880,2632,4549,-1239,-8154,163317,74508
186487,3516,16124,4516,-887,11458,3230,163719,74684
186627,3904,15812,1628,-1739,-2540,-1020,163011,74547
186767,3428,16216,2916,-882,4090,1638,163015,74506
186907,2564,15268,1936,-686,5907,3267,163269,74510
187049,1828,13908,2064,-1639,6674,1869,163432,74526
187189,3208,16352,3640,-4747,-4733,4257,163085,74507
187329,4440,14616,3832,-2790,-105,6026,163184,74606
187469,7512,14692,4532,-3028,4756,7372,162833,74445
187609,8532,16256,7396,-8704,13916,12672,161728,74125
187751,4688,9224,9932,-10719,8544,8544,160595,73962
187891,5256,4412,11000,-6154,1728,1213,160509,74001
188031,5088,3832,14020,-3215,49,-1340,160626,74071
188171,4020,3472,11624,2645,-2024,-2724,160823,74026
188311,2552,6244,11920,7130,-1294,-6697,160679,74037
188453,4808,10552,10356,9697,-6551,-10821,161035,74119
188593,5288,14748,8540,11582,-6426,-13947,161327,74132
188733,5284,15088,7948,5688,-5511,-7165,161177,74206
188873,5152,15656,7188,-1286,1823,3350,160618,73981
189013,3828,16792,5620,-4237,6610,8072,161060,74102
189155,2588,15040,4068,-4139,2436,4016,161615,74204
189295,3832,12236,4976,-1611,-15,1940,162051,74236
189435,1736,16076,5872,1238,-4560,-5567,162148,74404
189575,3928,13892,4264,1828,-6685,-6278,161818,74261
189715,1532,15392,4940,1905,-6095,-6338,162335,74383
189857,1792,15228,4988,2913,-4506,-5888,162339,74317
189997,2064,14748,5172,2054,-2332,-3057,162416,74363
190137,852,14780,4312,80,-2966,-913,162337,74464
190277,440,15592,3712,-2099,-1152,653,162536,74454
190417,2540,14764,4020,-2296,6901,4898,162550,74456
190559,1268,14772,5040,-3318,2787,4393,162532,74406
190699,1812,15264,5420,-1339,4629,4353,162454,74417
190839,2064,14096,5500,-882,1958,3165,162774,74573
190979,3672,18316,4796,-352,1997,4181,162755,74540
191119,1832,12376,3800,-1220,-330,3361,162819,74570
191261,2892,15204,4424,2231,-1218,-2609,162961,74531
191401,2904,17144,4240,4757,993,-6913,162868,74529
191541,4328,14908,3884,2391,-5954,-7707,162921,74624
191681,3556,16800,4448,-498,-8146,-6237,162710,74555
191821,4044,14492,4944,645,-607,-1085,162718,74556
191963,2096,14508,5800,-443,6851,3046,162853,74495
192103,2704,15320,5832,-4215,733,5442,162897,74517
192243,3488,15288,6004,-4245,1464,7527,162682,74558
192383,3088,13284,5524,-3184,3134,7377,163053,74604
192523,3396,15992,5400,773,2110,1868,163041,74579
192665,3192,13332,5120,2008,7818,1646,163078,74511
192805,2716,12824,4472,3588,-2043,-1395,163096,74547
192945,5596,16508,4236,6819,-1531,-6797,163223,74707
193085,2476,16856,3904,4186,-8978,-6771,163092,74618
193225,2908,15652,4200,1614,-2492,-5308,162905,74596
193367,3604,14976,3844,-290,-3856,-2332,162839,74512
193507,3996,15532,3972,-1558,6208,3804,162797,74505
193647,4200,17196,3792,-4504,3810,8910,162682,74599
193787,4316,15584,3796,-4025,4583,10775,162803,74529
193927,4092,13832,4524,-3668,1642,5764,163212,74603
194069,4544,13936,4796,-2027,-1352,861,163260,74578
194209,4368,13724,5448,927,268,-4021,163246,74529
194349,3812,15300,4440,-578,-5754,-5795,163141,74707
194489,3352,15484,4388,-371,-6450,-7412,163265,74628
194629,3388,15004,5084,1592,-5625,-8484,163226,74614
194771,3816,14132,5176,3218,-1482,-7623,163229,74598
194911,3028,15256,5560,2526,1234,-2245,163202,74561
195051,3044,15848,5188,-1812,-120,5103,163100,74640
195191,2696,16660,4440,-3841,1120,8741,163097,74579
195331,2580,15712,2940,-3540,2299,9478,163109,74538
195473,5004,16136,3592,-154,3774,1970,163177,74605
195613,5024,13368,3704,-300,-3253,1144,163219,74638
195753,3940,15180,4284,-653,-1100,-4095,163335,74717
195893,4168,15188,4172,-956,-8703,-6466,163023,74589
196033,2648,14656,4068,474,-900,-7501,163329,74635
196175,2544,16712,5100,277,-7732,-7313,163353,74659
196315,1048,14352,5212,-424,-3193,-5108,163458,74729
196455,724,15496,5204,324,-3886,-4782,163403,74771
196595,-788,14172,4488,-1024,-614,-822,163605,74718
196735,1072,15360,4620,-529,-687,1435,163597,74707
196877,276,14848,6360,-1209,4140,4548,163713,74693
197017,2044,15144,6596,-3135,3753,8644,163378,74716
197157,3096,14176,4836,-1657,2111,10429,163447,74756
197297,3824,15256,5372,689,7432,9246,163411,74665
197437,2460,16036,4976,1056,8287,4853,163270,74617
197579,1764,14100,3708,-17,2987,662,163673,74771
197719,5420,14552,5084,5545,-5029,-10603,163406,74699
197859,2400,16772,5352,2997,-3032,-13433,163409,74784
197999,4764,15444,5084,-483,-11185,-11171,162618,74532
198139,3868,17028,6944,-315,-1147,-5555,162688,74476
198281,2920,13184,6600,-1257,8463,3863,162976,74597
198421,2844,13580,6996,-2108,671,8242,163090,74625
198561,1884,17372,7268,-4053,9031,13701,162925,74657
198701,3028,13060,6300,-3126,1656,11253,163321,74659
198841,4844,15556,5964,2713,5333,5562,163360,74665
198983,3176,11284,5892,3695,8527,3914,163530,74684
199123,2332,15432,5412,2284,-1849,547,163554,74693
199263,6504,13956,5360,6415,3139,-3803,163423,74763
199403,3956,14892,6736,5059,-1271,-5855,163352,74656
199543,4096,14808,5444,1791,-6934,-6426,163399,74670
199685,3268,15464,4788,544,-6329,-5191,163317,74637
199825,3776,14720,4616,555,3288,691,163342,74619
199965,3100,15348,4192,-2279,2,3673,163418,74764
200105,5200,15564,4328,-1301,2108,3980,163343,74674
200245,4968,15264,5396,-1997,2252,5899,163318,74669
200387,6056,13448,5828,-3522,2730,6162,163386,74592
200527,5540,15544,5008,-4390,1985,3160,163581,74702
200667,5652,11896,4820,-98,-1604,220,163487,74717
200807,2560,15204,5304,1709,3330,-3693,163571,74770
200947,3644,14996,5092,3415,-2619,-6251,163590,74709
201087,3376,14744,5316,5394,-2233,-8551,163657,74684
201229,4060,16004,5756,4608,-5207,-7403,163680,74668
201369,3012,15476,5064,1867,-664,-1767,163296,74651
201509,3200,15768,3764,-3114,-1404,4075,163243,74717
201649,2864,18404,2532,-5604,1861,9567,163272,74678
201789,2888,14320,2180,-3019,-276,6533,163460,74645
201931,4396,13776,3140,-542,901,1432,163363,74663
202071,4780,16360,3568,458,-2370,-3395,163348,74637
202211,3480,14480,3564,2071,-670,-4868,163372,74736
202351,2212,15360,3024,804,-4464,-6368,163467,74661
202491,2084,18864,3884,2370,-1366,-6522,163317,74663
202633,-408,14052,3088,133,-1695,-4544,163662,74748
202773,532,17696,3284,-363,-5083,-3470,163704,74727
202913,-560,14924,2820,-2160,-5217,17,163758,74839
203053,1300,15608,4236,-1951,1727,3936,163565,74761
203193,1952,15164,4928,-2896,1604,7066,163645,74746
203335,3284,14908,6072,-986,6244,6149,163581,74660
203475,3276,15456,5956,-2703,3177,6775,163601,74688
203615,3524,17036,4628,-1705,1427,6259,163511,74760
203755,2972,11996,4764,-200,5260,3596,163617,74775
203895,4672,14124,4656,1033,-747,-1023,163653,74756
204037,3568,16296,4816,2481,-5321,-6288,163528,74714
204177,6412,14432,5240,3140,-2931,-10083,163655,74740
204317,7068,14456,6316,672,-2145,-6625,163462,74774
204457,3612,12724,5108,-1153,-2180,1777,163520,74775
204597,3808,15444,6092,-438,5945,4508,163503,74771
204739,3996,15364,6096,-2101,4254,5359,163551,74738
204879,4464,13824,6316,-1668,1522,5500,163705,74747
205019,4464,14296,6752,-1596,2860,5365,163715,74819
205159,3700,15024,5888,-1105,3787,4642,163612,74833
205299,5844,12392,6120,149,1387,2918,163644,74741
205441,8480,11200,7556,-1593,3171,7606,163224,74601
205581,8748,10604,9616,-1076,5472,3995,163316,74664
205721,8968,9520,10708,-2688,2955,3819,162149,74477
205861,8148,8444,11644,-2916,4061,4769,161316,74328
206001,6668,6060,11736,-4000,2952,4988,160905,74264
206141,5912,5180,12604,-2698,3729,4920,161215,74298
206283,5916,4080,12916,-878,687,1529,161344,74379
206423,6544,3808,12668,1015,-1107,-442,161388,74431
206563,6420,4428,13276,2887,-500,-3598,161408,74464
206703,5548,6388,10936,5921,-2641,-5578,161409,74331
206843,5996,10392,10372,6161,-10374,-8323,161169,74232
206985,7624,13560,7192,6257,-9594,-13386,161758,74362
207125,5860,15736,4320,6603,-9050,-14648,162407,74548
207265,5168,17296,3488,1588,-5154,-8053,163046,74740
207405,4740,16176,5140,-723,-3414,-714,162964,74622
207545,2996,14196,4968,-2625,4084,5754,163238,74650
207687,3316,17496,5108,-3261,2122,7345,163396,74757
207827,3500,14980,4232,-2096,4019,7148,163550,74791
207967,3224,14088,3120,-1818,859,3884,163463,74835
208107,4740,16340,3432,2438,102,-3031,163434,74744
208247,4232,14860,3124,3382,-5130,-6366,163447,74744
208389,3724,16400,2840,1569,-6603,-9744,163450,74710
208529,3344,14456,3540,2507,-4186,-11646,163368,74667
208669,2184,16092,4064,-1418,-1043,-1873,163412,74792
208809,1132,15724,4100,-2657,666,5113,163378,74733
208949,784,15360,3892,-3652,719,7584,163539,74771
209091,1852,15548,4096,-2308,2359,7170,163417,74672
209231,3308,15988,4256,-3042,1715,5347,163421,74670
209371,2620,14520,4224,-1090,936,1177,163546,74769
209511,2672,14796,4496,3020,-585,-6103,163682,74850
209651,2296,16264,4248,4724,-1519,-10198,163679,74744
209791,2176,15376,4748,3386,-894,-6433,163376,74628
209933,3176,15560,4420,866,2586,-1016,163197,74608
210073,4972,16396,3572,-3226,5964,7886,163207,74644
210213,3864,16788,3220,-5160,1374,9707,163319,74717
210353,3776,15492,3784,-2668,1874,6829,163401,74673
210493,5284,13600,5200,-2267,675,2865,163437,74699
210635,5300,15756,4668,-2364,-2868,-1567,163487,74712
210775,4612,13360,4184,236,-3453,-6010,163599,74708
210915,4368,14196,5556,1138,-5302,-8267,163704,74802
211055,5608,14908,7168,667,-5080,-7735,163228,74680
211195,4892,13460,6976,-539,-2727,-3951,163377,74713
211337,5348,14768,6764,-1633,593,2973,163235,74623
211477,4412,15124,5972,-2807,3029,9595,163372,74632
211617,4108,14196,5624,-2468,5930,10218,163284,74724
211757,6612,11236,6240,-1103,765,7486,163256,74742
211897,6980,11368,8032,-576,-374,1154,163289,74645
212037,8456,9852,8668,-825,1156,372,163316,74613
212179,8432,9836,7740,-127,-2804,537,163141,74590
212319,8400,11260,7964,1286,2027,1258,163124,74621
212459,8716,10096,8140,1971,2470,1831,163220,74699
212599,9312,10824,8092,1599,659,469,163225,74599
212739,7416,10780,7292,933,2412,552,163239,74620
212881,7372,12724,7040,-26,-1608,-4041,163184,74613
213021,5420,12744,5312,978,-4044,-4632,163455,74681
213161,5716,14300,4520,1819,-4225,-10483,163587,74865
213301,6264,16200,5064,4600,-666,-10300,163360,74687
213441,2924,14660,5468,4534,4085,-5504,163364,74706
213583,3368,16172,5212,-466,791,870,163357,74668
213723,2820,15960,4020,-3732,-1588,6586,163487,74697
213863,3904,14700,3124,-3586,602,8542,163352,74768
214003,4816,15144,3016,-1546,2367,6669,163360,74787
214143,4788,13108,2844,974,-760,-102,163515,74759
214283,4768,14536,3472,550,576,-2651,163562,74728
214425,3812,15184,3544,955,-3420,-5730,163532,74741
214565,2532,15984,3648,2549,2413,-6761,163530,74802
214705,2156,16624,3788,6,-2803,-4577,163570,74854
214845,1116,14136,3584,68,-1770,-1930,163563,74794
214985,1096,16488,3880,302,-117,-1768,163630,74764
215127,808,15168,3248,-704,720,1259,163703,74825
215267,552,15696,2316,-2378,1461,3766,163720,74838
215407,1656,15256,3392,-2968,-504,4248,163730,74926
215547,4040,16860,5332,-567,4245,3614,163619,74785
215687,4036,13740,4780,1010,5136,3866,163579,74793
215829,2948,16648,4540,685,3184,2050,163725,74822
215969,2436,11708,2888,1952,3087,2189,163812,74822
216109,2648,17712,3272,-134,44,-2874,163933,74983
216249,4296,15216,3504,2219,-807,-3169,163629,74873
216389,3252,15412,3096,1763,-4025,-3644,163766,74859
216531,3624,15660,2532,1035,-4822,-5222,163767,74816
216671,3420,16428,3592,1671,-950,-5247,163796,74828
216811,1680,15748,3736,-2150,2061,1921,163704,74897
216951,2516,15064,4412,-5108,3137,6794,163924,74948
217091,3028,16536,4956,-3198,851,5225,163815,74907
217233,3480,13872,5156,-1017,2660,3056,164021,74844
217373,3932,15264,5640,-281,2202,1217,164108,74873
217513,4324,13728,5188,-303,856,1580,163840,74930
217653,4936,14260,4512,-259,890,-906,163940,74910
217793,4364,14496,4628,121,-1397,-1948,163966,74904
217935,2188,14456,4984,-9,-2614,-2952,164027,74831
218075,3020,15316,5112,2477,-1789,-5498,164051,74862
218215,3188,14796,4832,3384,-1376,-7009,163965,74962
218355,2708,15532,5104,1607,-4284,-4341,164015,74939
218495,2712,15560,5228,865,-224,-1164,163999,74908
218637,1912,15028,4104,-2056,2152,4135,164065,74853
218777,2744,17224,3628,-4440,1694,7822,164226,74902
218917,2064,14556,3332,-3233,436,6013,164014,74992
219057,3900,13688,4312,-691,-1817,2017,164258,74984
219197,4040,15696,4684,-1256,-2009,-97,164242,74950
219339,3800,13308,4192,253,-3370,-1882,164123,74858
219479,2372,15496,3864,-183,-1308,-3741,164330,74899
219619,2436,15776,3844,-274,-6073,-5747,164089,74986
219759,2384,14876,4140,2915,-2837,-8294,164140,68365
219900,2296,15640,4380,1735,-3691,-5949,164109,74892
220040,1484,15232,4628,178,-1523,-1350,163984,74956
220180,1792,15076,3932,-1897,-4646,792,164018,74832
220320,1980,15120,4096,-1248,-939,4954,163875,74868
220462,2300,16264,4220,-2059,1768,7182,164097,74897
220602,4552,14880,4024,-1423,475,3804,164001,74831
220742,3216,14108,3576,-2884,-80,4307,164119,74964
220882,5072,14152,4588,-530,232,726,164039,74829
221022,4160,14284,5128,1006,-185,-1119,164059,74857
221164,3740,14976,4116,924,-1991,-4294,164274,74893
221304,3120,15916,3564,1821,-1687,-7988,164362,74928
221444,2724,16056,3984,1757,-2599,-8006,164365,75014
221584,3320,15372,4376,-96,-780,-1777,164219,74903
221724,2932,14384,4260,-652,503,4700,164206,74910
221866,4888,15772,4252,694,3899,4741,164375,74926
222006,2976,16756,5304,-1508,6276,7730,164396,74917
222146,3208,14664,4736,-1793,7642,5888,164455,75070
222286,3640,15980,3864,-464,41,4254,164669,74978
222426,4772,12068,3040,762,-66,3483,164692,74986
222568,3972,16928,4096,2666,520,-1783,164791,74972
222708,5388,15128,3732,3239,-1195,-3695,164596,74921
222848,7020,14972,3832,81,-3756,-5267,164432,75072
222988,5496,14824,3040,-885,-5286,-5621,164582,74955
223128,4832,15480,3520,1051,777,-5511,164580,74955
223270,3908,15844,3996,-606,5184,-88,164687,74958
223410,3316,14096,4076,-3330,1479,5486,164654,74923
223550,3888,17184,5604,-3052,6247,6033,164660,75119
223690,4408,12804,5232,-1495,2300,5132,164903,75032
223830,4208,14808,5428,-371,3670,2786,165009,75034
223972,3428,14192,5784,280,4366,2168,165084,75073
224112,3880,13268,5480,-816,-1,-20,165141,75028
224252,3968,13504,4212,-712,-1332,-84,165229,75232
224392,3632,14308,6328,3592,731,-2799,165220,75082
224532,4104,14296,5952,3722,221,-5316,164960,75065
224674,3140,14572,4904,3947,-2174,-6517,165149,75112
224814,4380,16452,4808,2581,-4230,-5471,164995,75021
224954,3388,16092,3816,-327,-4663,-329,164844,75137
225094,3224,15488,2716,-2487,-527,5504,164899,75084
225234,4084,17492,3004,-1451,4754,5885,164945,75084
225376,3628,14600,2924,-1107,-129,5011,165248,75157
225516,4668,14332,2960,-628,235,2770,165385,75107
225656,3500,15540,3324,-1450,-3161,405,165327,75304
225796,3808,15444,2940,-1324,-4795,-2794,165328,75192
225936,3844,15000,2684,-376,-1422,-7640,165233,75160
226078,3020,15352,3224,460,-3880,-9285,165111,75099
226218,2928,17864,4592,2092,412,-5705,164848,75044
226358,536,14048,4096,1011,199,-5208,164972,75257
226498,1192,17208,4520,891,4259,-1689,164882,75135
226638,756,15344,3860,-2565,89,5614,164888,75113
226780,-416,15504,2392,-2800,-1790,6397,165093,75134
226920,1132,15924,2656,-1034,1701,6158,165191,75104
227060,2856,15044,2800,187,-855,1411,165231,75226
227200,3156,14308,2912,109,305,2621,165259,75187
227340,4360,15756,3148,490,-242,-1202,165253,75195
227482,3304,15248,2852,900,404,-1054,165301,75131
227622,2016,17184,2432,-353,1052,-2522,165274,75153
227762,2548,15644,2580,140,-743,-4448,165198,75248
227902,1020,16824,2964,-1199,-3546,-6223,165110,75180
228042,2080,13956,3624,864,2721,-2598,164952,75157
228184,1880,15452,4312,-1207,4107,2146,165057,75109
228324,2732,15112,4676,-1618,5123,5683,165075,75103
228464,1848,15448,5512,-2788,-1137,6174,164887,75192
228604,2336,14788,5292,-3968,-3187,7179,165101,75157
228744,4392,17344,4580,-1505,1601,6804,164968,75142
228886,2920,10992,2944,-299,34,3504,165209,75123
229026,3916,14124,4080,3207,-508,-2094,165274,75125
229166,5476,16916,4896,3962,5575,-6241,165045,75227
229306,5268,15512,4112,2776,-3815,-6021,165013,75150
229446,4288,14796,3512,709,-2719,-6387,165158,75191
229588,5064,17556,3820,-704,-7339,-6685,164993,75114
229728,5456,13768,4280,755,6991,-157,165150,75140
229868,3452,16284,4816,-3191,3561,4368,165096,75262
230008,4636,17484,4264,-4158,498,9244,165140,75184
230148,3456,13568,5496,-2406,1050,9325,165287,75255
230290,4084,14148,5712,-1068,3055,3557,165543,75206
230430,4848,13024,5724,609,819,-730,165528,75198
230570,5668,13288,4860,-270,-1451,-1964,165536,75356
230710,5352,13732,5020,1605,123,-3941,165452,75272
230850,3676,14476,5180,620,-3377,-4393,165540,75312
230992,4304,15384,5680,2682,-1526,-7796,165375,75196
231132,4056,13736,5908,1597,1158,-5411,165489,75222
231272,3168,17212,5528,-116,-4168,-2293,165264,75309
231412,3720,14468,4772,-972,930,998,165296,75254
231552,3656,16040,4764,-1224,2291,4679,165210,75241
231694,2968,16644,3480,-2339,3031,9447,165344,75199
231834,3240,14596,3372,-323,-2994,2012,165541,75268
231974,6032,13652,4744,311,-2259,1494,165616,75387
232114,5636,15480,4284,-2671,-345,-147,165663,75350
232254,5252,13396,3612,-572,486,-2422,165679,75332
232396,3012,15888,4172,234,285,-4893,165508,75220
232536,3796,16160,4664,2637,-196,-7979,165615,75278
232676,2364,15108,4328,2130,-3689,-7545,165431,75328
232816,1996,15416,3884,1082,-4121,-3060,165446,75293
232956,2112,16040,4332,515,-3587,-817,165329,75239
233098,2740,15408,3860,-689,-744,2553,165261,75177
233238,2028,15840,3392,-2296,637,7666,165440,75206
233378,2004,17400,2836,-1326,2573,5271,165295,75291
233518,3832,13756,2712,306,579,2301,165438,75271
233658,5676,14896,3488,-371,1061,2002,165320,75193
233800,5276,14244,3888,-151,-1323,604,165282,75169
233940,3472,15620,3740,131,2702,-142,165460,75170
234080,3256,15044,3176,-119,-697,-1133,165460,75287
234220,3016,15372,2804,381,-217,-2807,165357,75291
234360,2536,16096,2680,-213,-5050,-6777,165433,75227
234500,3076,15564,3408,474,-3093,-7089,165391,75158
234642,3224,17388,3840,635,239,-3253,165294,75135
234782,1504,13672,3876,-97,6462,4490,165194,75198
234922,3584,15908,4052,-1209,8102,3432,165277,75252
235062,1420,16644,4776,-3391,2127,6553,165219,75177
235202,3556,14956,4864,-2455,339,4714,165311,75104
235344,4036,14204,5100,-1280,1981,2650,165419,75169
235484,3992,15920,5084,293,1203,2498,165289,75193
235624,3416,11796,3940,201,-299,1518,165480,75260
235764,3932,15596,3816,3060,-425,-1056,165451,75185
235904,5320,15064,3880,4201,3081,-4317,165323,75132
236046,1716,17180,3876,902,-1675,-5572,165248,75130
236186,4748,14676,3084,672,-2775,-4743,165306,75185
236326,2960,16692,3212,-823,-6382,-3699,165233,75211
236466,4784,14036,4096,303,-64,-687,165206,75104
236606,2456,16108,4320,-2016,2246,3129,165147,75144
236748,1304,15080,3976,-5994,-11049,6741,165453,75191
236888,5728,16284,5356,-2381,-2639,5450,165185,75062
237028,5876,13040,5936,-968,4341,4175,165228,75271
237168,6260,13528,5780,-18,2618,1050,165225,75135
237308,5268,13388,5532,405,2294,44,165173,75124
237450,5824,13228,5024,208,1546,-753,165291,75151
237590,5360,13296,4836,1402,228,-2268,165150,75050
237730,3724,14684,5008,1781,22,-3229,165113,75241
237870,3344,14956,5532,4599,142,-9379,165140,75148
238010,2720,14684,5328,2844,-2996,-8554,165058,75117
238152,2968,16260,4600,272,-2876,-1932,164934,75074
238292,3624,15416,3732,-849,-4038,2988,164736,75000
238432,2088,16560,3764,-790,3864,7005,164709,75191
238572,4228,16580,3108,-2956,2424,10301,164770,75089
238712,5040,14532,3116,-1099,-1298,4544,164754,75088
238854,4440,14044,3584,-267,15,780,165025,75130
238994,5428,16052,3896,162,2441,-3025,165013,75057
239134,4036,13660,3596,1438,476,-4472,165004,75250
239274,2060,16284,3672,212,-2619,-7268,164933,75130
239414,3100,16668,3316,192,-4787,-4491,164960,75141
239556,2344,14592,4788,1908,425,-4586,165035,75141
239696,3048,15764,5168,134,344,-2778,164989,75069
239836,2372,15956,4592,-3385,-1261,6486,164749,75221
239976,2004,15132,4276,-2023,4754,7240,164900,75149
240116,3092,14636,4748,-541,4142,5105,164914,75140
240258,3900,14960,4188,-698,169,3414,165068,75155
240398,4452,15208,4656,-175,300,915,164971,75079
240538,4240,13576,4240,-1122,-1512,1463,165156,75319
240678,4592,14416,4516,812,1536,-601,165131,75209
240818,4116,14344,4396,2512,651,-2753,165196,75191
240960,2872,16092,3544,3040,837,-3779,165151,75189
241100,2464,17116,3156,1125,-2514,-6447,165303,75187
241240,2728,15880,2880,-381,-5236,-5632,165234,75329
241380,2120,15532,3344,-2131,-3608,-2819,165217,75194
241520,2336,13716,4172,-1555,-1253,1225,165019,75169
241662,3048,17088,7092,-3657,4408,4391,165128,75150
241802,3808,14560,6612,-4833,279,7634,165141,75115
241942,3368,12552,6744,-3684,4222,6723,165316,75336
242082,3700,13228,7572,-3319,-231,6023,165151,75192
242222,3344,12840,7400,-1337,-1616,3533,165124,75187
242364,5412,10832,5912,1606,-3615,-2159,165110,75126
242504,6000,13840,5056,5474,-2279,-5897,165180,75114
242644,6556,16088,5036,5228,-3232,-8931,164896,75285
242784,4976,15256,3380,1187,-8207,-7030,164966,75175
242924,5084,15068,3172,1500,-1536,-6470,165078,75200
243066,5008,16008,4364,316,3189,-352,164946,75093
243206,4476,16084,4192,-2129,8888,7289,164959,75130
243346,1976,15972,3220,-5084,5676,8447,165009,75284
243486,5308,16248,4344,-1598,2698,7424,165369,75304
243626,5360,12328,6100,-107,1055,4885,165439,75245
243766,6488,12968,5604,1557,3124,1082,165265,75173
243908,6396,12464,5120,1278,1726,125,165390,75172
244048,7644,14260,4648,276,760,-1523,165388,75265
244188,7920,12460,5424,-419,-1222,-1290,165269,75281
244328,5476,13648,4996,-657,143,-633,165222,75207
244468,4812,15528,5752,2762,2486,-3728,165295,75168
244610,3384,14068,4512,3057,763,-6192,165448,75253
244750,2904,15044,4512,5055,1989,-7534,165275,75222
244890,2608,17256,4840,2843,-3369,-5581,165151,75264
245030,1232,15148,3388,-366,-4586,-976,165105,75212
245170,3432,15784,3736,-2105,-646,4837,165085,75155
245312,3704,18284,3860,-4349,4646,9392,164995,75161
245452,2452,15088,2680,-4330,-1320,8689,165249,75227
245592,4212,13888,2832,-1121,2131,2956,165499,75335
245732,2896,15484,4104,710,-2267,-2874,165465,75243
245872,2440,15124,4068,512,-5132,-4367,165188,75200
246098,3000,15444,3340,1434,-735,-6649,165357,75276
246234,2848,16252,4540,1596,-3091,-6838,165148,75270
246374,2216,13948,4576,-355,-2771,-1096,165120,75264
246514,2220,16924,4676,52,-475,1322,165040,75207
246656,1020,14008,3248,-3380,-400,7156,165106,75166
246796,4080,15924,3000,-2089,371,4518,165159,75161
246936,4408,13968,3624,-31,-241,1675,165006,75223
247076,5220,15316,4828,428,4197,1797,165040,75245
247216,4652,14084,4532,-381,-892,1873,165021,75145
247356,3652,15092,4168,88,-277,276,165107,75134
247498,2892,15240,3188,1530,270,-967,165115,75191
247638,2804,15692,2848,2943,263,-5695,165163,75260
247778,2548,15644,2360,2556,-1723,-6721,165207,75299
247918,2600,16108,2788,1223,-4063,-5300,165140,75210
248058,2236,17276,3280,-1464,-163,605,164961,75148
248200,3448,13776,3664,-943,4751,3625,165113,75206
248340,3844,16332,3644,-3166,6455,5438,165235,75236
248480,5184,17296,4368,-1339,1467,6934,165047,75232
248620,2800,13944,5748,-3512,4729,7348,165374,75265
248760,4860,14988,6944,-2368,2544,1814,165181,75191
248902,3744,14700,4244,-1492,1690,2606,165420,75263
249042,4136,12452,3516,957,-101,-1137,165585,75294
249182,5596,13712,4928,4872,-1731,-5026,165251,75317
249322,4584,17596,4680,4090,183,-6269,165155,75220
249462,6044,15080,3656,3558,-4898,-4968,165143,75221
249604,4196,16092,4112,1546,-1418,-6889,165159,75216
249744,4352,16272,3544,-829,-5365,-4606,165071,75153
249884,4112,13936,3764,-754,5674,2989,165036,75340
250024,3600,16384,3776,-2907,4427,3917,165109,75219
250164,1144,17228,4348,-6158,1367,8445,165366,75333
250306,5756,15256,4908,-5078,-9282,7192,165610,75310
250446,6964,11360,5516,-359,3341,4854,165592,75289
250586,7028,11596,5436,675,1428,564,165529,75425
250726,6692,13788,5528,645,1644,-787,165336,75307
250866,7136,12184,5968,632,3070,-2650,165346,75336
251008,5688,13508,5172,253,191,-3536,165422,75285
251148,5008,13152,5184,3647,402,-6052,165356,75264
251288,4784,18124,5408,5305,992,-8602,165137,75319
251428,4004,14380,4528,2997,2774,-6497,165129,75283
251568,2996,16996,4340,-667,-3343,-82,165020,75284
251710,4284,16008,3440,-2615,3959,6612,165104,75216
251850,172,15628,3016,-6019,-6351,6983,165336,75290
251990,4580,14264,3812,-3176,-1548,4602,165188,75399
252130,5608,14640,4480,-2485,142,3923,165064,75347
252270,6568,13268,4416,390,188,-596,165376,75371
252412,3920,15052,4736,374,177,-2495,165371,75321
252552,2380,14572,4708,-196,-2108,-3815,165483,75316
252692,4196,15968,5508,1996,-1364,-7421,165276,75384
252832,3000,14140,4888,1954,-641,-5991,165284,75405
252972,2912,16880,4852,2050,-3321,-5027,165147,75299
253112,2936,13672,4000,1165,-1063,-2906,165045,75230
253254,2724,16144,4352,-672,1997,2799,165089,75249
253394,1824,17896,3444,-3932,4329,9579,164996,75316
253534,2068,14800,2328,-1980,919,5742,165156,75390
253674,3932,12528,3544,-50,4596,3163,165089,75270
253814,2460,16740,4296,-1228,-2964,-1248,165128,75211
254096,3612,14328,4136,1089,1918,445,165135,75352
254236,2148,15188,3020,1351,-442,-2431,165178,75356
254376,1292,17008,2516,1285,-4948,-7500,165277,75349
254516,2636,16304,3228,2278,-2284,-8268,165261,75343
254658,1284,17028,3172,1612,1716,-5365,165360,75341
254798,1832,12460,4112,-276,730,2336,165113,75271
254938,3320,16664,4796,-3767,5211,4455,165144,75431
255078,2272,16724,4108,-5857,-3330,10928,165207,75328
255218,3608,14860,4528,-3279,-2349,8186,165421,75346
255360,4768,14264,5176,-581,1931,5782,165469,75308
255500,3272,15216,5272,1338,6596,3400,165379,75255
255640,2496,12948,4376,2154,3053,-1665,165374,75413
255801,4684,14192,3760,2601,-2862,-3130,165431,75316
255941,5364,14444,4152,4682,656,-3750,165163,75327
256081,4352,17216,4692,1462,-5366,-6739,165146,75376
256221,4792,14808,3096,574,-1925,-2771,165082,75290
256361,3524,15612,2428,-564,-2702,-1879,165193,75253
256503,3632,15984,3284,1553,-1610,-3132,165051,75238
256643,2284,15380,4152,-406,8869,2196,165159,75329
256783,2664,16220,3452,-5419,2958,4980,165137,75356
256923,2656,15232,3576,-6307,-372,6181,165253,75310
257063,4524,15544,6100,-2864,-371,4870,165309,75233
257205,4712,12716,6864,-2556,88,3238,165430,75313
257345,5332,14144,6256,-1514,-486,101,165496,75352
257485,3328,13360,6476,-1500,646,-1089,165505,75436
257625,3124,14876,5696,-2750,-7293,-553,165496,75317
257765,5276,13236,4972,392,-7627,-6732,165246,75315
257907,8600,12780,4988,1432,-7784,-10367,165269,75309
258047,7916,15344,5856,-1408,-7662,-4976,165124,75192
258187,6676,13516,5256,-1214,-5428,-750,164853,75336
258387,5524,14280,4888,769,-2793,1240,164708,75249
258527,5724,15464,4184,245,222,458,164756,75183
258668,6028,14440,3440,-2517,-4792,-1005,164812,75266
258808,6620,14720,3656,-2898,-3823,-2187,164582,75188
258950,6184,14428,4028,-3107,-4042,-2672,164552,75130
